,Frame,CoM pos x,CoM pos y,CoM pos z,CoM vel x,CoM vel y,CoM vel z,CoM acc x,CoM acc y,CoM acc z
0,0,0.0424410706830058,0.0769154079651401,0.896052427808078,0.00257377435125107,0.000302432393386181,-0.0200117465984952,0.0321454538293825,-0.00420025038479106,0.0283250006405332
1,1,0.0425419773927287,0.0769147873874604,0.895922279620338,0.00334020422121329,-0.000416123657244876,-0.0199032109922641,0.0243332491243339,-0.00375201389974166,0.0217314289007343
2,2,0.0426413099768799,0.0769153587388263,0.895787336595463,0.00391914020157552,-0.000725633273702911,-0.0197876668773401,0.0199255686839376,-0.0230204893940557,0.0271363873018952
3,3,0.0427414330560897,0.07691533416866,0.895654804624372,0.00450543588137799,-0.00125986281155847,-0.0196652112069207,0.0206670644141252,-0.0399870157488921,0.0363247131680326
4,4,0.0428447107005339,0.076912925915015,0.895531888282901,0.00506023983045513,-0.00158275829590646,-0.019550501556321,0.0270996560652557,-0.0273328604058774,0.0167444040927649
5,5,0.0429535065166409,0.0769063462894552,0.895425790944386,0.00558450315226118,-0.00182367477500871,-0.0194168047876396,-0.00353130774007382,-0.0552614824839605,0.00228351527114459
6,6,0.0430695924195317,0.0768942030826829,0.895339364523467,0.00635136971036939,-0.00197140018454547,-0.0192960401029834,0.0182518428560725,-0.0462064709650984,-0.0102602111867877
7,7,0.0431913917911736,0.0768776880898612,0.895267804388068,0.00699029669002467,-0.00197422224145116,-0.0191793777246834,0.0167381407815768,-0.0445613166378816,0.00755719686110476
8,8,0.0433162454457925,0.0768588898255096,0.895206828589315,0.00779307712173125,-0.00217164559408177,-0.0190710889255236,0.0287419419926381,-0.00537811226145307,0.0223224199445876
9,9,0.0434414944123425,0.0768398970262427,0.895152155483896,0.00837885157591542,-0.00208484431120426,-0.0189400243981841,0.0137849516558687,-0.0366484970932281,0.00108722009302082
10,10,0.0435644798353858,0.0768227986554782,0.895099503685437,0.00873529658852454,-0.00211578014487863,-0.0188215690477075,0.0323472754180109,-0.0109566876575077,0.0331257715340764
11,11,0.0436856384359306,0.0768061623946364,0.895047849770109,0.00893632401304101,-0.00181067894008943,-0.0186789405149237,0.0350365383360479,-0.0266380379595351,0.0305267322461159
12,12,0.0438067427440544,0.076788596210396,0.895000046924424,0.0092990307897724,-0.00190825931349646,-0.0185371043404498,0.0170611279553782,-0.0407982970835125,0.00675783899140107
13,13,0.043927137617039,0.0767722494856673,0.89495762892333,0.00952832102182072,-0.00181872391803532,-0.0183861362192233,0.0201219629332788,-0.0354201875870846,0.00994937787824077
14,14,0.0440461678451614,0.0767592713437574,0.894922129626983,0.00985176572727524,-0.00180795022654974,-0.0182338224071718,0.000147760972203284,0.000570710051409498,-0.0107472601594952
15,15,0.0441631781606412,0.0767518106300495,0.894895082981389,0.00990377162920881,-0.0014811595726607,-0.0180787674784078,-0.00397595384608969,-0.0265970105032424,0.00628975831109619
16,16,0.044277470688869,0.0767507204271616,0.894879706376625,0.00970299074640537,-0.00136459535125929,-0.0178667133409055,-0.0290935340717876,0.00849567811754389,0.000358126333966387
17,17,0.0443894819225979,0.0767545679359456,0.894874976606002,0.00967953530854118,-0.00136093838504411,-0.017680187520451,-0.00544041931449427,0.0293791290528548,-0.0160893943662224
18,18,0.0445002582215379,0.0767620730179939,0.89487606703095,0.00942419690827792,-0.00134255538104618,-0.0174733965050559,0.017160175484154,0.0248089912405575,0.0124548435050433
19,19,0.0446108461241532,0.0767719556554687,0.894878151244113,0.00919024466316669,-0.00131421625641206,-0.0172990064757668,-0.00260249322661532,0.0149561433531863,0.0145778061830714
20,20,0.0447222923811254,0.0767829359844971,0.894876403012338,0.00895995963071452,-0.00119494836113448,-0.01716014587845,0.00795080220634648,-0.00883955708466773,0.0254353734940155
21,21,0.0448365701372645,0.0767945602648122,0.894870694178883,0.00870410130413059,-0.000900728603868295,-0.0170986574549342,0.00372989094153746,-0.00610094202934176,0.00589118322833853
22,22,0.0449529818349898,0.0768076819797137,0.894864242682548,0.00865424996862034,-0.000588298424472874,-0.0170952152525205,0.000420039201213895,-0.022682815306489,-0.0199671924658431
23,23,0.0450685682889227,0.0768229818457275,0.894857241268214,0.00849464306752478,-6.8698920472011e-05,-0.0171019036906564,0.00392597339362773,-0.0237950564318524,-0.0328932527027719
24,24,0.0451803702091568,0.0768411400448086,0.894849882258678,0.00851066327715336,0.000307940234314628,-0.0170731021317929,-0.0666595914688918,-0.000392803280042175,-0.00398752435107399
25,25,0.0452854281700056,0.0768628362798079,0.894842357590146,0.00854822808893513,0.000707626084715422,-0.017014896915578,-0.005356997066506,0.00641846102798115,0.00827402023109915
26,26,0.0453811915980922,0.0768876423037556,0.894834606743901,0.00845648194721438,0.00101640936491224,-0.016819479292458,-0.0246787607771513,0.0285174846600271,-0.0160649730234801
27,27,0.0454696334326544,0.0769151039370969,0.894826501350594,0.00781082915111615,0.00158730573230301,-0.0165403926684571,0.00654701358245632,0.00298163263848179,0.0160353885771831
28,28,0.0455545795115519,0.0769458621055404,0.894818131411203,0.00726909891519431,0.00202948377957503,-0.0162242075163478,0.0182850260936436,0.00946040122680532,0.0409298166486139
29,29,0.0456398558995189,0.0769805581498003,0.894809586927376,0.00694905779774267,0.00263427090823905,-0.0159146776581728,-0.02585177407365,-0.00200990069243515,0.0123072964237723
30,30,0.0457292889011671,0.0770198337741994,0.894800957897847,0.00681958903482419,0.00286122028420586,-0.0156694401945348,0.00112369508490643,0.028096635143696,0.0054211941973443
31,31,0.0458205657758238,0.0770623596731928,0.894791612273085,0.00661758458366816,0.00343843143517467,-0.0155125665336949,0.000136251588182639,0.00519248343692997,0.00755073110914787
32,32,0.0459111359219093,0.0771077078739514,0.894781490083059,0.00714118678334065,0.00373887681776553,-0.0154736955006682,-0.0279379111177777,0.0162885398628049,-0.00129940529391326
33,33,0.0460044694105651,0.0771578730466931,0.894771539369688,0.00740595663450374,0.00412799250983682,-0.0154158371307563,-0.00236615562456899,0.0268205726583691,-0.000559395852672452
34,34,0.0461040369180709,0.0772148508365793,0.894762708012331,0.00796492578573183,0.00459415095770873,-0.0152660030077844,-0.0490859281919868,-0.0109588385320065,0.00116356254474761
35,35,0.046213309776334,0.0772806379155564,0.894755943856749,0.00864064327728121,0.00491983502377633,-0.0149757445059182,-0.0416819035111437,0.0405245682341436,0.000374436542589158
36,36,0.0463354688803381,0.077356551167124,0.89475153482919,0.00939434319982948,0.00563004279133827,-0.014431343270596,-0.0328015545508959,0.0278005004704479,0.00762443721179536
37,37,0.0464682020454641,0.0774412629414767,0.894748849676354,0.0105204274542185,0.006646050143582,-0.013709609154628,-0.0290940910333525,0.0367589578062456,0.0427112351356249
38,38,0.0466067414915412,0.0775328025688815,0.89474745741745,0.0115626597768413,0.00799451523761546,-0.0129172623463442,-0.0521077937265443,0.0283328059087277,0.0739096303206609
39,39,0.0467463196981579,0.0776291975861337,0.894746926544401,0.012540798524253,0.00931978365373379,-0.0122177066643901,-0.00608957182468142,-0.016162719634845,0.0909641204556055
40,40,0.0468821691453751,0.0777284735901108,0.894746824932722,0.0128495900766447,0.0106433121818957,-0.0116985460489206,-0.00593487707997955,0.0322107970863769,0.0713229076197205
41,41,0.0470149159852692,0.0778303591701112,0.894748119016085,0.0126380409939851,0.0113860458952057,-0.0114516191669933,-0.00147729171637479,0.0453466646319591,0.0896521680249112
42,42,0.0471477405379452,0.077936168709729,0.894751097630873,0.0121222248376544,0.012575503218506,-0.0113294535798455,0.0175901515120883,-0.00433222652454073,0.00275518046569949
43,43,0.0472797053072073,0.0780463055756515,0.8947543112514,0.0111815217943511,0.0135019491829763,-0.0113287162338532,-0.00389353849048471,0.0287908620366845,0.00775657316805476
44,44,0.0474098722931636,0.0781611741270055,0.89475630926866,0.0104582611292061,0.0142675672703263,-0.0114011292532118,0.00474493210246015,0.0339411375057211,-0.0276562529378667
45,45,0.0475373031223187,0.0782811793998046,0.894755640214363,0.00999944298126795,0.0150172541713517,-0.0115197022448451,0.0102662694888388,0.0516395298218853,-0.0524746496425032
46,46,0.0476597475400354,0.0784057868785732,0.894751535293182,0.00969428682525255,0.0155846806316564,-0.0117407185699512,0.0154054887573348,0.049436328224747,-0.0930641334266051
47,47,0.0477778303991345,0.078534723823503,0.894744962126002,0.00919141712118461,0.0160033515235111,-0.0120962132683811,0.0184790054373317,0.0349345133973007,-0.0434415795735655
48,48,0.0478949256730565,0.0786687895817983,0.894737073542397,0.00893009240596322,0.0163508321928601,-0.01247150175448,0.0346393796876105,0.0689851094016551,-0.0429794796768246
49,49,0.0480144077127423,0.0788087866751517,0.894729021575279,0.00921237480146797,0.0169615620164618,-0.0127899816851194,-0.00489237201126727,0.0409067442482824,-0.0297284570422486
50,50,0.048139651020298,0.0789555209848502,0.894721957284481,0.00953055417808333,0.0175155516571352,-0.012924781402645,0.0182698634071308,0.0251045166207632,0.0146179140723539
51,51,0.0482709588694871,0.0791082205470962,0.894715551345986,0.0103994990106251,0.0178091672219245,-0.0128210236906938,0.0173331525647359,0.0402672734791292,-0.00415197371342179
52,52,0.0484060797590063,0.0792663506303979,0.894709035978986,0.0113821394041888,0.0179502652218327,-0.0125501563872889,0.00989304818269205,0.0074415579741481,0.0210210702719315
53,53,0.0485445563462806,0.0794310748573969,0.894702904452521,0.0126439251300688,0.018054279719353,-0.0121906224404547,0.0129076154531982,0.00477768947565416,0.0139198065093354
54,54,0.0486859321165298,0.0796035568365408,0.894697650553989,0.0136833851533965,0.0183790915242348,-0.0117946294946001,0.0153190750440748,0.0209501981145747,0.0265149624458782
55,55,0.0488297514857946,0.0797849602605904,0.894693768683419,0.0144795076214934,0.0186722754425126,-0.0113949779215937,0.0114410006115132,0.0742568023166367,0.0141090671049811
56,56,0.048976745199734,0.079974994401711,0.894691452100243,0.014792228261184,0.0193118816673535,-0.0109475066918033,0.0121950190266789,0.0329393504128944,0.0396237746898275
57,57,0.0491272155325391,0.0801728839473584,0.894690374591555,0.0146395673767847,0.0203090946575583,-0.0103644240598977,0.0123409769752064,0.0734129175045976,0.041062094473956
58,58,0.0492800654510048,0.0803790671370734,0.894690250168873,0.0144838402025351,0.0216195354604399,-0.00979005736011132,-0.0193330202358939,0.0480129196932385,0.0398367551694174
59,59,0.0494341987161123,0.0805939843340996,0.894690790173115,0.0145184601209316,0.023098448031452,-0.00929865816564214,-0.0540497354131592,0.0729764298376356,0.0366035984574565
60,60,0.0495885202783869,0.0808180781116035,0.894691703154344,0.015014721043514,0.0245003180504783,-0.00901075159999215,-0.0625171212015748,0.0610945161231119,0.0300374232622768
61,61,0.0497453702599142,0.0810476551274649,0.894694004248611,0.0157724406405203,0.0258598689245624,-0.00892951075571146,-0.0433920993439366,0.0532108285197849,-0.0312388235257322
62,62,0.0499054807424055,0.0812824270407795,0.894697885037055,0.0164995798455813,0.0273478888180877,-0.00900504907118844,-0.0240746737034604,0.0646005911964953,0.015105083252158
63,63,0.0500653445841302,0.0815279433654112,0.894701817256592,0.0168995098550221,0.0289008708290757,-0.00916566508875095,-0.0540094694531641,0.064333560213819,0.0195304099557265
64,64,0.0502214527386572,0.0817897503092437,0.894704273875383,0.0173885185622174,0.030334486111649,-0.00940754996833461,-0.044717826488422,0.0987053680172694,0.0105582766929812
65,65,0.0503702942528381,0.0820733902212455,0.894703730161817,0.017312606198903,0.0316668128501716,-0.00967925437694745,-0.076099127912765,0.11864795034596,-0.0480366755144631
66,66,0.0505088907492654,0.0823769083317658,0.894700208630158,0.0162337218849341,0.033296299325131,-0.0101025501276765,-0.0281542721498138,0.111558583398569,-0.0311486021245581
67,67,0.0506395824083541,0.0826966069496459,0.894694731330164,0.0144161111783117,0.0349831329581706,-0.0106700517509806,-0.0387608593288817,0.0835504146641751,-0.0480466205585229
68,68,0.0507668337191909,0.0830354091345016,0.894687274949751,0.0128708431445611,0.0368951595414426,-0.0112590699106669,-0.0471079159332714,0.117164994668192,-0.0390911330311532
69,69,0.0508951078046651,0.0833962359123321,0.894677816067976,0.0115964834668872,0.0389584239062366,-0.0116659603991659,-0.0883807371675572,0.110944964435007,-0.0833493560277123
70,70,0.0510288669818739,0.0837820076039802,0.894666332565067,0.0106654232317056,0.0414519151779991,-0.0117887603341434,-0.0540494891620742,0.105601873281086,-0.0301311624245685
71,71,0.0511680164658584,0.084199669129594,0.894653470285118,0.0106502904041467,0.0438921866797239,-0.0115478085974103,-0.0934613256140464,0.171016381369681,0.0376956362998976
72,72,0.0513095816849531,0.0846472722091813,0.894639265286996,0.0111063754578353,0.0461887443833386,-0.011005817475662,-0.0832674545116208,0.20219272566922,0.0347520746431371
73,73,0.0514537048553055,0.0851143925074701,0.894622779738953,0.0112287926517924,0.048810444798135,-0.0102793401047799,-0.0359374344261428,0.240930708966507,0.0538281686868503
74,74,0.0516005268731694,0.085590595213757,0.894603070444046,0.0111370816445888,0.0513691665592913,-0.00953174576449763,0.00183873235587569,0.199633475093385,0.058087248391283
75,75,0.0517501856793849,0.0860654320439201,0.894579188798183,0.0109179005138643,0.0535601653802741,-0.00892986273867758,-0.0224698262331753,0.148662878727749,0.0647405647119013
76,76,0.0519124783655913,0.0865401512854464,0.894550978841575,0.0103642934969157,0.0551513779902155,-0.00850750791770941,-0.0146944784653403,0.120555243438967,0.0770075461256686
77,77,0.0520873066169143,0.0870216690099594,0.894519114541186,0.0103001346114855,0.0560078208808199,-0.0081604695768621,-0.123278304313265,0.0493641060451964,0.0592075168102194
78,78,0.0522599631921132,0.0875080486233043,0.89448386601974,0.0105688921901366,0.0555431235199486,-0.00783185986730421,-0.0745482539067627,0.0668417350858717,0.0519354071246456
79,79,0.0524157444890631,0.0879973889821368,0.894445465020756,0.0103065013411111,0.0543097028582865,-0.0074144109325665,-0.0133944067717952,0.01000264295793,0.0394816137303014
80,80,0.0525399516092146,0.0884878251800597,0.894404105219093,0.0104531903135885,0.0529192948507703,-0.00682775508221219,-0.0550105396575404,-0.0147908337401067,0.0144913811031784
81,81,0.0526233739677413,0.0889878206945062,0.894351443839941,0.0105432477310005,0.0510420764499833,-0.00600848720839139,-0.0187640441771119,-0.0492758504222196,0.0186893230605037
82,82,0.0526758090008492,0.0894986375514305,0.894287324357788,0.0101319438201634,0.0485482607662812,-0.00495167508569812,0.0208255645678801,-0.0957434736035318,0.0810667715115714
83,83,0.0527110762343344,0.0900076400225045,0.894224192687526,0.00967958322047825,0.0461091831220804,-0.00382330092616517,0.0306862295467015,-0.160042271083502,0.0942449883291471
84,84,0.0527429993981401,0.090502201676679,0.894174486883715,0.00886568033172425,0.0439221641393511,-0.00271378016888851,-0.00089546999751229,-0.13428707907541,0.092280398804058
85,85,0.0527854060600229,0.0909697007865212,0.894150638683095,0.00749177874873476,0.0425650585561561,-0.00179955444728085,0.0204553622575243,-0.195196116006681,0.086825126571307
86,86,0.052844524267286,0.0914086639373066,0.894161483604935,0.00620298220059009,0.0414793166782592,-0.0010757340612464,-0.0164116822574141,-0.153910059127627,0.0953857240216317
87,87,0.0529111443678602,0.0918275211991573,0.894198711829949,0.00489000122013343,0.0402918360421932,-0.000410156674351903,0.00422501874227353,-0.167387357522462,0.0221436931333865
88,88,0.0529759383623486,0.092228498967243,0.894249040981349,0.00372628351512316,0.0388875622563883,0.000115026800521216,0.00766736992892868,-0.17832042741849,-0.0219286934764102
89,89,0.0530295760823668,0.0926138243078815,0.894299189463859,0.00302629681515524,0.0371698075033185,0.000468923840273592,-0.0466679999196251,-0.133128306889121,-0.0857341979900092
90,90,0.0530627253837868,0.092985731578726,0.894335872404675,0.00248130692516225,0.0355309028007509,0.000596167338293776,-0.0158424242922866,-0.212699720098596,-0.0967646711581465
91,91,0.0530711709724535,0.0933462155697098,0.894359385890546,0.00199829220930224,0.0334853093485411,0.000404642880244152,-0.0307924628165678,-0.193761311524885,-0.110254106375967
92,92,0.0530611389577002,0.0936937854176548,0.894378582791784,0.00166336162571696,0.031302541767921,-9.68427072681154e-05,-0.0194806045976209,-0.200869067671022,-0.086441763643011
93,93,0.0530389560490603,0.0940254543681896,0.894393013141201,0.0009488080626299,0.0288415000842351,-0.000727353413104888,-0.0150466585743525,-0.161855334982878,-0.0748683534530224
94,94,0.0530109457423597,0.0943382356485252,0.89440222866833,0.000206605386619538,0.0265289878322438,-0.00136107460996712,-0.0121142416927192,-0.138303402770973,-0.0783557853522887
95,95,0.0529834282384586,0.0946291415138156,0.894405782407859,-0.000659512175004772,0.0245230043030801,-0.00187190961288714,0.0134458916223586,-0.0909813672889247,-0.0713909886782758
96,96,0.0529568438598019,0.0948939883322761,0.894401707283044,-0.00150833166432275,0.023362858727822,-0.00227307352380326,0.00561837857110076,-0.0748473564078427,-0.064367655684614
97,97,0.0529269751391138,0.0951347673380166,0.894390303228813,-0.0021178008316486,0.0218948353472883,-0.00268492614990939,-0.0266983290391686,0.0158494203110595,-0.0678192965760705
98,98,0.0528931523164274,0.0953577534068936,0.894374524261504,-0.00249709788822135,0.0208516215909128,-0.00304768903757797,-0.0232049694226534,-0.0191500069559121,-0.0629453932895236
99,99,0.0528547052509573,0.0955692236895172,0.894357323518314,-0.00270715899349085,0.0198270843277751,-0.00330602710883114,-0.0135970345567688,0.0143223455101999,-0.0363545837933621
100,100,0.0528109632483954,0.0957754570353785,0.894341653488415,-0.00266340937854462,0.0188710864068966,-0.00340709580090926,-0.0263324599122994,0.0175201905545307,-0.00566402608220602
101,101,0.0527589782026136,0.0959715073884855,0.894327360155515,-0.00269264950058146,0.0176766288630416,-0.00323462601603398,-0.0207623802979806,0.0155210869244152,0.0100562932831189
102,102,0.052699187675302,0.0961531886719356,0.894312476109075,-0.0025757029514224,0.0164221238307829,-0.00286393078022771,0.0807006656203422,-0.0426449977223735,0.0351710579355943
103,103,0.0526360018608684,0.0963279195836333,0.894297233197347,-0.00253406459345207,0.0151694394085728,-0.00238121448383264,0.0590169582765216,-0.058364788204661,0.0436615291123931
104,104,0.0525738361223306,0.0965031199850434,0.89428186248516,-0.0025836943316612,0.0140299892952127,-0.00193930559502633,0.0915462413206633,-0.138773270799421,0.0289042930382959
105,105,0.0525171112479283,0.0966862118131537,0.894266594008165,-0.00298254704916711,0.0134507089703672,-0.00165324521171275,0.0886261606765334,-0.135993287952172,0.0473562907679644
106,106,0.0524635743607359,0.0968829352529196,0.894251225192458,-0.00311442520456393,0.0131684493120554,-0.00161481020095397,0.0788986004410215,-0.148431256553189,0.0205024736673563
107,107,0.0524102788206226,0.0970883413754177,0.894235602195888,-0.00336117268370908,0.0132461549238732,-0.00168372814705268,0.0353533742737164,-0.156594444946166,-0.00866782377229111
108,108,0.0523606108936742,0.0972938213144834,0.894220026494434,-0.00338670475312068,0.0133279273569176,-0.00184357339450516,0.055232735377086,-0.110538590315526,-0.00300226295786181
109,109,0.0523179597796008,0.0974907677742255,0.894204798759635,-0.00339340948224607,0.0135573310164874,-0.00198603562046624,0.0451975683819077,-0.116239647561235,-0.00104894188607426
110,110,0.052285716902104,0.097670574479786,0.89419021915,-0.00338445252321274,0.0136187110237232,-0.00202746840518726,0.0190579478962234,-0.13625169345995,0.00181433013700669
111,111,0.0522659383985958,0.0978303975446454,0.894175562746558,-0.00286170911672378,0.0131201729862447,-0.00197868632742526,0.00177600353052682,-0.0681884836819441,-0.0146838333421024
112,112,0.0522563686992058,0.0979759759620841,0.894160627115888,-0.00237325772207072,0.0120354455587831,-0.00188587431278861,0.0503177140433027,-0.096116433253348,0.0298215008480288
113,113,0.0522539308106013,0.0981115774267184,0.894146496779252,-0.00156969504763231,0.0109284555455535,-0.0017684628187334,0.0170717470120638,-0.0651531558449386,0.0459423718324956
114,114,0.0522555469045037,0.0982414695926482,0.89413425688214,-0.000664478945522103,0.00993962937388322,-0.00161912677443051,0.0445170928187962,-0.101207297349141,0.0205668179787424
115,115,0.0522581390268099,0.098369920565525,0.894124993001084,0.000211196629030138,0.00921252282076515,-0.00141476830079739,0.042801537230781,-0.0795836054749803,0.0412930638110374
116,116,0.052260945374718,0.0984968191876559,0.89411951078861,0.000850727511419579,0.00865187320233828,-0.00108910784189745,0.0338419836642223,-0.0563168560910241,0.068872535218848
117,117,0.0522660179705898,0.0986193197520884,0.894117086752299,0.00152799973372245,0.00820103369567696,-0.000632922050414255,0.0246812412750924,-0.0173349355692414,0.0487909056742787
118,118,0.0522744986900652,0.0987375890452186,0.894116513221846,0.00197022537205729,0.00811498949141218,-0.000158431584858133,0.0410411222096854,-0.00797324601280311,0.0351507299658844
119,119,0.0522875287890055,0.0988517940291176,0.894116582539004,0.00239876447815085,0.00838054748938555,0.00020227069818455,0.0292934799083447,-0.0331426784351793,0.0657318100343295
120,120,0.0523062490380271,0.098962101778028,0.894116086999291,0.00268847952515699,0.00853135581396322,0.000388137177864945,0.011271213544045,-0.00821548509704773,0.0249675195247273
121,121,0.052331847831745,0.0990688870550328,0.89411550158303,0.00302399468309097,0.0082813128653538,0.000294099040930396,0.0146377994431578,0.00753229044463467,0.0107142332812743
122,122,0.0523635628942893,0.0991720383830091,0.894115631583196,0.0032576616239318,0.00805824845610757,2.95680875713348e-06,0.0371339571535865,0.0131327665074567,-0.0170556496860936
123,123,0.0523996092602529,0.099270993698186,0.894115764802256,0.00354321422767153,0.0078625731229475,-0.000385849926550986,-0.0136646903877856,-0.00348196994303334,-0.0135241566894372
124,124,0.0524382025262249,0.0993651914020111,0.894115189209294,0.0037273493520624,0.00727294363292509,-0.000778799201332279,-0.00190822643986994,0.00427567083499685,-0.019876133897042
125,125,0.0524775587373345,0.0994540704173278,0.894113192961656,0.00405384527500748,0.00654884653515572,-0.00108487103133324,0.0221062429009865,0.00305669298689362,-0.0235948237076998
126,126,0.0525200134016924,0.0995390113902125,0.894109411221121,0.00410126907117905,0.00596606857810003,-0.00132307261005418,0.0374319394570753,-0.0240159118624768,-0.00467082275323207
127,127,0.0525667555650816,0.099620389384602,0.894104319055183,0.00389843182172811,0.00530184218811706,-0.00152442093940008,0.054405802404061,-0.0274495614469605,-0.0470001951467255
128,128,0.0526142819478646,0.0996961351573457,0.894098464419081,0.00399324970413567,0.00464103461435778,-0.00170887023983354,0.0517263954320906,-0.0659334307667448,-0.0242261754570773
129,129,0.0526590893450469,0.0997641794258014,0.894092394961049,0.00389146856794378,0.00356637604466782,-0.00183517559420116,0.044776968856943,-0.00550605675632124,-0.0016676218422524
130,130,0.052697674669356,0.0998224528817579,0.894086658044306,0.00370446742048747,0.00284591556237342,-0.00184324465378919,0.0172085199651737,-0.0418797956788163,0.00567827817267682
131,131,0.0527278247404661,0.0998681609973628,0.894081011289853,0.00364565991168253,0.00190437989660031,-0.00175497267137422,0.0343276692301946,-0.0377876876627354,0.00512199800588484
132,132,0.0527518749513407,0.0999026844666649,0.894075089501748,0.00338855404622223,0.000891265277879108,-0.00154911188707954,0.00490471863341986,0.014422189327209,0.0116551708247874
133,133,0.052773145052292,0.0999302165297336,0.894069255783672,0.00313562249067036,-0.000187098405048842,-0.00128351166451445,0.00148147269073722,0.00876911579761318,0.0244547411557853
134,134,0.0527949545295302,0.0999549500554303,0.894063873385828,0.00281875900736905,-0.00104658788156933,-0.000999144534496422,0.0336606360253324,-0.0292973090268297,0.0279242339520838
135,135,0.0528206225494344,0.0999810774583992,0.894059305732195,0.00256130625706467,-0.00187458433163367,-0.000737189840172419,0.0350023237142436,-0.0156336663138746,0.0275193839057511
136,136,0.0528498021785156,0.100011747522247,0.894056129249367,0.00258903468165954,-0.00270936943904525,-0.000443904782029016,0.0160561367299097,-0.0377542997452712,0.0386843221655238
137,137,0.0528802796326221,0.100044164989748,0.89405410222997,0.00271552613860158,-0.00319087666417499,-9.00552172817263e-05,0.0256584423274279,-0.0729997514862829,0.0331433544621505
138,138,0.0529125736699358,0.100073606536122,0.894052360631851,0.00280413601958705,-0.00355462091193663,0.000233212739398982,0.0250679783819035,-0.0501500968169498,0.0312163962853009
139,139,0.0529472033966628,0.100095349963785,0.894050039696007,0.00308767811087181,-0.00378459057562301,0.000441028159210584,0.0325186271732197,-0.0573348185990786,0.0298888849419865
140,140,0.0529846882369934,0.100104674072597,0.894046273965412,0.00338531984144927,-0.00450444512205425,0.0004825804231491,0.063310117007902,-0.0148988821383331,0.0196222245478505
141,141,0.0530257815383481,0.10010115131497,0.894040808809703,0.00369325329027504,-0.00530171909529172,0.000278770983430766,0.0476209574450646,-0.0276210299484407,-0.021764654389304
142,142,0.0530701361164925,0.100087930066983,0.894034220406012,0.00423359385496023,-0.00651451164220612,-0.000136128894381209,0.0402822119885044,-0.00192882298276826,0.00483960848073796
143,143,0.0531166208531527,0.100065654285567,0.894026889124637,0.00447819082298336,-0.00748167583962129,-0.000634317677985303,0.094987888418425,-0.0325648636031402,0.00166563726721681
144,144,0.0531641049264725,0.100034969098652,0.894019195332198,0.0047825470420413,-0.008972413604274,-0.00108177309385443,0.0464685242421433,0.00570382431417891,-0.00169846001946544
145,145,0.0532114578709068,0.0999965207931501,0.894011519335583,0.00512347590700218,-0.00966765946595764,-0.00136324925538778,0.0467113424443248,-0.0462681753283343,-0.00759335012500383
146,146,0.053259760042366,0.0999472183891835,0.894003947047508,0.00501882674930239,-0.0106282541498418,-0.00141837482114905,0.0859121485895211,-0.0235152856438222,0.0292289222184262
147,147,0.0533097640237716,0.0998866340713669,0.893996224186442,0.00515246796228774,-0.0112896466557818,-0.00133831530233922,0.0575056304472607,-0.0584855307652102,-0.00601502907676392
148,148,0.0533598487560568,0.0998194090853465,0.893988220757333,0.0050227574901567,-0.0119040923861098,-0.00118581325482204,0.0752639062519754,-0.0596439668882068,0.00805841621305379
149,149,0.0534083942403987,0.0997501840763053,0.893979806800114,0.00485807670669912,-0.0125926850344131,-0.00103512007115604,0.0581177953694092,-0.0549984082670715,-0.0110566736130728
150,150,0.0534537815671354,0.0996835992779461,0.893970852345173,0.00467846582889833,-0.0130010033816553,-0.000969620706622421,0.0539951116436839,-0.0870402289174689,-0.0119899566626629
151,151,0.0534968070516086,0.0996215228243976,0.893961197256815,0.00450309194313792,-0.0135635938323149,-0.00102145998053427,0.0549379186476762,-0.061159313903795,-0.00248036440758775
152,152,0.0535385516373582,0.0995608624464323,0.893950927537603,0.00418896417157208,-0.0139993646029563,-0.00113195970100863,0.0490166508095141,-0.0897352044992955,0.0138431798524339
153,153,0.0535778241457607,0.0994988172423651,0.893940282175175,0.00390283329662514,-0.0143951983589229,-0.00126285204298313,0.0453735520208481,-0.0890456987588161,-0.00819552188197661
154,154,0.0536134332945236,0.0994325858374731,0.893929499884142,0.00346074158338452,-0.0147500652874745,-0.00133659397166782,0.0159663145279838,-0.101430466742505,0.0153871915421213
155,155,0.0536441877631023,0.0993593662388039,0.893918819252305,0.00297971667602733,-0.0150258587309811,-0.00131336490421248,0.0360356213058703,-0.107845367711067,0.0178879498959768
156,156,0.0536674730856093,0.0992786060033631,0.893907780797469,0.00238730343904285,-0.0153576338468079,-0.00117271239444363,0.0247438079650097,-0.0990425407266179,0.0383352130098289
157,157,0.0536840856018705,0.0991921735924716,0.893896223659742,0.00189092922715254,-0.0158306843167274,-0.000962256310698743,-0.00437968629187316,-0.109825471530171,0.0220542808180926
158,158,0.0536979497877932,0.0991008962533319,0.893884835532159,0.00116564979784421,-0.0162275845359615,-0.00067910042004269,0.00866606611609751,-0.105875904695302,0.0342525362577728
159,159,0.0537129892877215,0.0990055994885396,0.893874305571344,0.00066171767603015,-0.0167109158376959,-0.000358632613802006,-0.0442176557283708,-0.0908762466860782,0.0304958970771589
160,160,0.0537331267975467,0.0989071073155041,0.893865324311604,0.000495755002960985,-0.0169635922764423,-4.65245704986995e-05,-0.0326004879216601,-0.113981785361225,0.0639784552116648
161,161,0.0537550656483227,0.0988048678986181,0.893857503333801,0.000879406109614548,-0.0172348704596065,0.000284858101259501,-0.0565058957882306,-0.0952328334201901,0.0285190434215326
162,162,0.0537761909468125,0.0986983277941209,0.89385038425941,0.00150343483804672,-0.0174084288305839,0.000617168786060158,-0.0330265216360074,-0.114648025914721,0.0492034524984667
163,163,0.0538014471054321,0.0985883075843691,0.893844554180268,0.00220369349326448,-0.0176701628049159,0.000975806314757177,-0.00928560506590544,-0.101671414511109,0.0575325484494532
164,164,0.0538357782843954,0.0984756280000725,0.893840600780056,0.00316242276524781,-0.0176584503107234,0.0013642747669629,-0.0605249923450386,-0.109875933177204,0.0679318434854777
165,165,0.0538841284572431,0.098361109954369,0.89383911232333,0.00422810716385156,-0.0176359653883905,0.00178226657975164,-0.0551328894547773,-0.0833858042575843,0.0820844427524466
166,166,0.0539493317958357,0.0982418300688305,0.893840386798736,0.00496470240503223,-0.0171839712510953,0.00227046332119393,-0.0355842534409964,-0.115414329933098,0.0776102837775572
167,167,0.054028091780331,0.0981172379621319,0.893844036270226,0.00556088164197899,-0.0170541258536542,0.00283182156644273,-0.0157006370217446,-0.0739997808843224,0.110634140582774
168,168,0.0541161563615103,0.0979917145370769,0.893849619678158,0.00599120598981509,-0.0172014916582529,0.00340083551869881,-0.0414453410542965,-0.0213023880563154,0.0904757376581853
169,169,0.0542092736099936,0.0978696409759792,0.893856694721787,0.00651004767655724,-0.016810719884019,0.0039201939049475,-0.0326705180659898,-0.0661929522948378,0.0769797755940136
170,170,0.0543031917123338,0.0977553985586852,0.893864817915135,0.00691776658072807,-0.0165009518661247,0.0043383839753032,-0.0324805078372862,-0.0100170216695102,0.0440980554733142
171,171,0.0543995362463249,0.0976504594847933,0.893874180726706,0.0072517425385432,-0.0156665780986078,0.00463951987988827,-0.0181778344775862,-0.0322822958936859,0.0414846772724503
172,172,0.0545011418822236,0.0975519002937253,0.893885081293172,0.00750894755245269,-0.0149805823312696,0.00487395169160135,-0.0210022365662311,0.0168033330185192,0.0617040118151234
173,173,0.0546055703644259,0.0974575097931043,0.893897233607203,0.00786360650542583,-0.0136801758471577,0.00504462199513863,-0.0275727161460979,-0.0215494367069854,0.0432139893289662
174,174,0.0547103830268725,0.0973650781847184,0.893910349205291,0.00798797628019161,-0.0126203602121034,0.00515066871035467,-0.0396922316529245,0.0235849528053951,0.0632823572830645
175,175,0.054813140710305,0.097272396969439,0.893924137395739,0.00790147867098582,-0.0119087983516995,0.00518296673869312,-0.0234390435002462,0.0173797466504148,0.0606247094788203
176,176,0.0549182635014887,0.0971796001854515,0.893938585203728,0.00788711637874743,-0.0114044989991579,0.00509966389863464,-0.0448348379773901,0.000675928866687522,0.0512670817228152
177,177,0.0550273761298414,0.0970881597554413,0.893953884499178,0.00766169414036623,-0.0110290004196955,0.00485789185674111,-0.00662519826541376,-0.00790631716169729,0.0461849184470391
178,178,0.0551338465579837,0.0969978757546172,0.89397005024887,0.00759343043975572,-0.0110714427577852,0.0045958061214619,-0.0323295978593797,-0.0272583223447321,-0.00182296439360258
179,179,0.0552310436110638,0.0969085497022576,0.893987096711551,0.00730720168607365,-0.0111109097963501,0.00440043881160632,0.00770535062700457,-0.00719268174015088,0.00401194306435694
180,180,0.0553123370534408,0.0968199844215033,0.894005037409698,0.00712177738973523,-0.0108830926846231,0.00435869513085944,-0.0238006290177499,-0.0262967005931117,-0.000626266300491652
181,181,0.0553697226182417,0.0967337791184819,0.894023995185548,0.00646549093160946,-0.010585305638867,0.00457319729320318,-0.0169386195564978,-0.0360876283481493,0.0141443701486349
182,182,0.0554076209049496,0.0966500671883755,0.894043959302459,0.00539267547767056,-0.0104960683549901,0.00500090863426124,-0.0352926097667855,-0.0123114186024221,0.0916521514756231
183,183,0.0554380399792164,0.0965664529985796,0.894064742620153,0.00411077682908589,-0.0106374095308039,0.00551093910152918,-0.0383889253086887,0.0100453780694291,0.0724781682261854
184,184,0.0554729882800378,0.0964805405565003,0.894086157861917,0.00338426061148091,-0.0106204330424712,0.00594279384656529,-0.0153640467391578,0.00489043500700331,0.0727780947349771
185,185,0.0555244745242381,0.09638993349763,0.894108017366044,0.00340646966824264,-0.0108532224083981,0.00614772503082245,-7.43392819956861e-05,-0.0054830212045448,0.0482722067592661
186,186,0.0555813272704628,0.0962910633924746,0.894128337145752,0.00394055143294706,-0.0113788880014066,0.00602668337191878,-0.0135318813378239,-0.0229745567563809,-0.0133533619301522
187,187,0.0556355419748704,0.0961855271011841,0.894147242248926,0.00494709324464863,-0.0123635630149446,0.00558791980563403,1.84282161018373e-05,-0.0445730563353813,-0.0190658770426229
188,188,0.0557038776916434,0.0960786752393108,0.894167706255962,0.00643614416821995,-0.0134041607232972,0.00512543496077834,-0.0435463141406915,-0.0579334582391436,-0.0126527003748107
189,189,0.0558030932753419,0.0959758578084139,0.894192700003508,0.00868200741460771,-0.0142703028060588,0.00485176680469603,-0.087681778950637,-0.075232342980557,-0.0139459846913689
190,190,0.0559499476229911,0.0958824250311144,0.894225194439466,0.0110490291009472,-0.0144721076528308,0.00501628049479606,-0.124447526567332,-0.146555659148566,0.0144656137769769
191,191,0.0561617792312741,0.0957921819155459,0.894266256460721,0.0140410001218468,-0.0143808938122153,0.00567840551492167,-0.122973073447778,-0.108750016324012,0.049406582331144
192,192,0.0564274177525555,0.095701555516932,0.894313906549543,0.0170921333103336,-0.0146151052233353,0.00671989459891795,-0.0878352516124574,0.005141731038169,0.105219039793475
193,193,0.056720857632388,0.0956198376751591,0.894366556270169,0.0199906002106874,-0.0140977749145439,0.00797556728291467,-0.103419957572205,-0.0172276764781566,0.1424439270152
194,194,0.0570160913342723,0.0955563340727313,0.894422628701842,0.0225651124543928,-0.0133494999338338,0.00929977751265761,-0.110934911764459,0.0346738187498125,0.144592059524251
195,195,0.0572871112552667,0.0955203696516407,0.894480567203182,0.0237279693665409,-0.0117802327382176,0.0105833516170673,-0.171000822600708,0.050825504672226,0.182811541010057
196,196,0.0575361333269626,0.0955041161702377,0.894533885800608,0.0248138783101484,-0.00966748626714061,0.0118348271248712,-0.18711280888826,0.145491074096016,0.170760462302652
197,197,0.0577805205137178,0.095501403341944,0.894583824712619,0.0254419647033581,-0.00676305694899025,0.0131767753151258,-0.202988110285319,0.101522652027886,0.148660908928275
198,198,0.0580169609448905,0.0955240778354657,0.894640280014921,0.0245337297907943,-0.00381653924755929,0.0145711205627266,-0.187380197844309,0.153181255663364,0.168438041040311
199,199,0.0582421037420928,0.095584004552291,0.894712882884565,0.0236400649932472,-0.000543901036779182,0.0156893487492198,-0.0934184217077311,0.0741054680539963,0.230943777279017
200,200,0.0584525769156721,0.0956930101620198,0.89481105910954,0.0222845078334098,0.00386573314885602,0.0163941137254485,-0.0850527854516954,0.0625683500149479,0.231642544403419
201,201,0.0586660223933156,0.0958708087175406,0.894951397599254,0.020211071524272,0.00915165382017585,0.0173819381194655,-0.202129960415444,0.0187872985039953,0.232493002860478
202,202,0.0588847120474719,0.0961094616890561,0.895127492067547,0.0169747488848351,0.014506992963613,0.0187054311940775,-0.215731642172549,0.0407038898287379,0.256163526672598
203,203,0.0590822301010859,0.0963791052710533,0.895314277677555,0.0146933268652069,0.0202622259578655,0.0194782979643384,-0.317230082975162,0.0860906980616241,0.164825894954319
204,204,0.0592321534174699,0.096649737832014,0.895486832745274,0.011642193679225,0.0249848344689907,0.0190858115339098,-0.327968055553034,0.132824582999831,-0.00464957748025955
205,205,0.0593080432804668,0.0968913000076503,0.895620519823729,0.00648249118794692,0.0290547903287954,0.0168131051072978,-0.328010591368325,0.178212052940515,-0.157681548687
206,206,0.0592775811510464,0.0971068234293746,0.895723793636142,0.000412261577517044,0.0328935237628775,0.0117337902615944,-0.486967809893024,0.156828693881463,-0.311113508239654
207,207,0.0591585164350074,0.0973159470665676,0.895814702899966,-0.00529730482531128,0.035308456809389,0.00428912473193842,-0.585329304811219,0.169002218376876,-0.526374911073247
208,208,0.0589994477159509,0.0975135945432169,0.8958829333389,-0.0108219276811407,0.0348626568135406,-0.0040048055346504,-0.519063849782297,0.375770307379356,-0.693637440933248
209,209,0.0588489086376912,0.0976946762837388,0.895917333740617,-0.0169760337936602,0.0339585445674615,-0.0119319084170588,-0.277954322748319,0.385827513555104,-0.756857790692815
210,210,0.0587553700672242,0.0978540621829591,0.895905703097974,-0.0216535047090452,0.0327386099157604,-0.0181987332704443,-0.0878311098914304,0.338867448809487,-0.742393645319734
211,211,0.0587493183889122,0.0980004331261288,0.895825849801166,-0.0235376640109963,0.0283700949917199,-0.0231850193161498,0.00421597833857597,0.28085780048252,-0.621555805121642
212,212,0.0587983778976592,0.0981367980027963,0.895686164664421,-0.0220565143971121,0.0205000135118118,-0.0277993779304597,0.0498888924120802,0.0872563431260423,-0.492996234444478
213,213,0.0588566492830348,0.0982496763239658,0.895519419417052,-0.0182486094956277,0.010813218755124,-0.0315810695562217,0.0201618211113153,-0.00985534027469088,-0.331440804854822
214,214,0.0588782067124443,0.0983258252038341,0.895358252789406,-0.0140054500556499,0.00224321689502597,-0.0341696275961588,0.0642172026289223,-0.185384705288359,-0.221020475623498
215,215,0.0588171152308613,0.0983522349470734,0.89523516685604,-0.011445227675716,-0.0049380501821172,-0.0350198302166563,0.142839647267738,-0.171384337480077,-0.110475023526249
216,216,0.0586536644315767,0.0983234374723354,0.895144594123369,-0.0107752647290835,-0.00977427358509642,-0.0336723169259374,0.324388642680541,-0.194401770661731,0.0295764536660767
217,217,0.058418295410543,0.0982481071401634,0.895064648929834,-0.0112400015488019,-0.0134595321923248,-0.0303378973308644,0.394068515561666,-0.169354752529964,0.113088248518621
218,218,0.0581403985678704,0.0981348904573946,0.895003404967434,-0.0128740741947496,-0.0154811081996654,-0.0258707852716209,0.41909161353128,-0.226893538484378,0.284031018740323
219,219,0.0578494915898495,0.0979928012186252,0.89496913711572,-0.0143484617999869,-0.0167860925456999,-0.0210496158103037,0.217413001241571,-0.196188247769967,0.316483501002423
220,220,0.0575751881753316,0.0978312297941354,0.894970337791803,-0.0163290992502281,-0.0178686932307138,-0.016559445576382,0.119933478954356,-0.158493618384624,0.423598577594983
221,221,0.0573110502066491,0.0976393028171692,0.895011763216046,-0.0175356262536122,-0.0188105239514451,-0.0124709718643328,0.039743711695846,-0.156112675175592,0.42778329748834
222,222,0.0570373509321244,0.0974120536790478,0.895088137816786,-0.0190091539198043,-0.0193779775615883,-0.00812893793221885,0.0535433101752559,-0.200779709482818,0.44377673766793
223,223,0.0567638049987442,0.0971675430525278,0.895193042413991,-0.0212467766857485,-0.0203741196511622,-0.00352937865593262,0.0794986330697741,-0.192178259082128,0.459174856517709
224,224,0.0565002003834505,0.0969231637831649,0.895319992911446,-0.0238142901809584,-0.0220168318943755,0.00122703737448794,0.0609738560845509,-0.174758526259123,0.458166557162286
225,225,0.0562564528634159,0.0966956542355544,0.895462459487025,-0.027333609819662,-0.0243197491220679,0.00620528428135587,0.0138423691178363,-0.20141220284784,0.494383124564067
226,226,0.0560365086640909,0.0964963249533135,0.895624805293103,-0.0320121807031086,-0.0274019761562853,0.0116206011262928,0.0216227984347777,-0.277840158463294,0.4523395408935
227,227,0.0558339128535759,0.0963136486643585,0.895812080896406,-0.0382693504203577,-0.0312790673724395,0.0170683510527165,0.05019265347525,-0.307638444835513,0.491755384865219
228,228,0.0556430944819585,0.0961297578847005,0.89601831434876,-0.0458028282686264,-0.0355571794880537,0.0223033242220546,0.0503698884374607,-0.435524714998162,0.498445103788955
229,229,0.0554584747505133,0.0959269285537921,0.89623687698875,-0.0529676110483095,-0.0397919426683313,0.0269762388927429,-0.0225598213333314,-0.467174198548196,0.421513047657618
230,230,0.055274441555106,0.095687562632002,0.896460495114352,-0.0588577823039382,-0.0428865229927075,0.0305160139914374,-0.101547277747582,-0.554015198972142,0.346778192536335
231,231,0.0551101260265879,0.0954175498309809,0.896695487518568,-0.0626163973520141,-0.0465540843262055,0.0329533976005339,-0.246441692540329,-0.508546823496464,0.255806071848637
232,232,0.05496952774147,0.0951286222220448,0.896946352639684,-0.0655094112047422,-0.0506319624716533,0.0347387581613879,-0.326043922523515,-0.559529090959315,0.165615870364531
233,233,0.0548241752970332,0.0948121119357731,0.897202069675942,-0.0673420149016209,-0.0548985999306815,0.0357812723511373,-0.334450201021654,-0.572802165643114,0.0719023681422933
234,234,0.0546454065117401,0.0944594418952265,0.897450894759309,-0.0680337010348574,-0.0576537109933588,0.0360938398305205,-0.344088663701112,-0.667144778589771,-0.026453715340847
235,235,0.0544043601554354,0.094062069154159,0.897680516824991,-0.0672568255050994,-0.0602330814148511,0.0354236945353312,-0.282073441960002,-0.605912184606687,-0.140638540260162
236,236,0.0540858723542114,0.0936176329310171,0.897895996023521,-0.0650457227156411,-0.06334705970856,0.0336751057704353,-0.18688914530768,-0.521801846152631,-0.235477841746753
237,237,0.0537089235744255,0.0931319291113304,0.898104326901601,-0.0617444375494113,-0.0653359610015424,0.0307841523820024,-0.105500499465744,-0.541858060763061,-0.267357765153085
238,238,0.0532956996942645,0.0926084984427856,0.898295597542115,-0.0585158160721909,-0.06703151103126,0.0270581843503437,-0.0629316972171272,-0.538365747786081,-0.264206953585508
239,239,0.0528683573943121,0.0920506996144066,0.898459807693976,-0.0557331122593087,-0.069078842380382,0.0228617711730831,-0.00843377217370451,-0.614895251680444,-0.260155699518941
240,240,0.0524490502155925,0.0914617330657008,0.898587247005639,-0.0535052547598605,-0.0712477793994863,0.0185122044412135,0.0336330343159244,-0.635962129498376,-0.268542744250332
241,241,0.0520482444027157,0.0908737527899831,0.898680709610122,-0.0504516118343984,-0.0730657106234685,0.0138760307152062,-0.0568791146297659,-0.723429300836845,-0.303992671776273
242,242,0.0516509288645733,0.0902839797240206,0.898747830607546,-0.0450614793281861,-0.0759405850973535,0.00897475546753502,-0.230622776720241,-0.718257134916537,-0.364474024296395
243,243,0.0512410566524734,0.0896431499936512,0.898786939075949,-0.0391548450677834,-0.0789295023713144,0.00420107394811527,-0.301425548714152,-0.718851127642528,-0.43348193810687
244,244,0.0508025682875963,0.0889020543184996,0.898796525284063,-0.0352802302698116,-0.0819447971203432,-1.53991113704346e-05,-0.192824364064502,-0.802524697297596,-0.399906347380366
245,245,0.0503193720155272,0.0880115657195212,0.898775037868868,-0.0344066997651513,-0.0860151573619659,-0.00357990614986347,-0.0844626577129855,-0.741843354403351,-0.34538720006718
246,246,0.0497837778627037,0.0869666632185209,0.898722023902315,-0.0363851679685641,-0.0916370876971082,-0.00643812239557816,0.0211897071029384,-0.617726075495319,-0.299903982405064
247,247,0.0492063847458787,0.0857992734708776,0.898644452925054,-0.0398454303105262,-0.098600783579226,-0.00842909343580716,0.0640136218953661,-0.570354994497748,-0.215709215264014
248,248,0.0485985420235888,0.0845160755148469,0.898549927175248,-0.0428670492514635,-0.106771633604361,-0.00951556603270556,-0.0343268978407774,-0.481238189011159,-0.234898060152372
249,249,0.0479716374992652,0.0831242067100936,0.898442867768916,-0.0463759422013315,-0.115426728055472,-0.0100939672525406,-0.117058366485539,-0.478735589911177,-0.158830656286381
250,250,0.0473370573115561,0.0816312352262209,0.898324142758765,-0.0498749575346569,-0.124046630574119,-0.0106598038207584,-0.228292681315122,-0.459076350454682,-0.145561031770118
251,251,0.0466861267799982,0.080014126978919,0.898182863554728,-0.053632453725902,-0.13404347962335,-0.0120406522230361,-0.37537698786866,-0.50497435926157,-0.152874685116982
252,252,0.0460109477937063,0.0782673251872016,0.898019042081328,-0.0581710433495892,-0.146955619427208,-0.0141232463713247,-0.4483819716572,-0.523723177245148,-0.203540408266457
253,253,0.0453242660948526,0.0764258403279226,0.897845209422675,-0.0626706057636715,-0.160595818730092,-0.0164516845398249,-0.396098748072049,-0.328038674746332,-0.168900158992852
254,254,0.0446392128787282,0.0745260076325029,0.897671152256028,-0.067091658868318,-0.172646421013902,-0.0174904009214183,-0.599813922354512,-0.377796593299586,-0.179901884812648
255,255,0.043969308791551,0.0726052745321729,0.89750446624971,-0.0699694231424322,-0.18048283871971,-0.0151595493468016,-0.505677747521602,-0.367462448179776,-0.0890063290967661
256,256,0.0432950250112458,0.0705403027171513,0.897336815713294,-0.0674802820744877,-0.181834034831006,-0.00801040384666476,-0.128273075919894,-0.0184408787598416,0.436749757387793
257,257,0.0426077375256724,0.0683081043292434,0.897158378418743,-0.0582270239273712,-0.178472168156252,0.0026543183081477,0.266921061545203,0.282958490631435,0.783346396594649
258,258,0.0419376944275282,0.0660965641185441,0.896975124695704,-0.0477990009710709,-0.170930163854075,0.0136020900480928,0.375490150008689,0.341474785312064,1.01770534088672
259,259,0.0413151489861144,0.0640929537536511,0.89679472610869,-0.0367574325290093,-0.162301644053859,0.0222680748931678,0.0808724058597839,0.663071706654689,1.03332773496586
260,260,0.0407702489699635,0.0624839043088587,0.89662642524513,-0.0271488125933789,-0.154876352966835,0.0266117660641241,0.00802256768942415,0.802554196350759,0.842884695484459
261,261,0.0403125949430102,0.0613632990853337,0.896465324188447,-0.0202038778880429,-0.146389717653842,0.0248000507993797,0.18373950021326,0.872699038248207,0.367620458177082
262,262,0.0399221900183799,0.0606045656492292,0.896309448049649,-0.0154083153211348,-0.136468320145632,0.018928214616623,0.179360362246397,0.553816758722027,-0.0453070953672864
263,263,0.039584499779857,0.0600633266040042,0.896173092233346,-0.0123983686156596,-0.125729753274807,0.0110268476368527,0.334560138595951,0.120327831284964,-0.449067585738714
264,264,0.0392850803541354,0.0595960484649021,0.89606900580748,-0.00986308661137212,-0.111577356207775,0.00310599876191231,0.391738614101568,-0.247778415311488,-0.721220984856755
265,265,0.039009753642431,0.059060250229496,0.896008005166039,-0.00821533990959825,-0.0954075979537302,-0.00319311275505492,0.413868594059641,-0.3616152467776,-0.845652950211138
266,266,0.038786888604218,0.0584955410826279,0.895981104963284,-0.00885346176518522,-0.0788981067836033,-0.00986422738386546,0.548901507853281,-0.380701801540333,-0.756725509558204
267,267,0.0386254061336665,0.0579940223384043,0.89598470884401,-0.0107994278504204,-0.0634771082024421,-0.0180260670912541,0.547551838870295,-0.24123439530788,-0.488819998117487
268,268,0.0384821670370133,0.0574947470405058,0.896033994230318,-0.0126726133913971,-0.0495780420739362,-0.0254460698379023,0.631554621003326,-0.28812742155214,-0.32453032033827
269,269,0.0383142746698544,0.056939907072344,0.896140914677741,-0.0173679628593902,-0.0371043635162121,-0.0298364972167029,0.911674471382307,-0.265238629314408,0.0604400570049093
270,270,0.0380792169203671,0.0562746707305784,0.896314329445588,-0.0227636127513119,-0.0253876918415161,-0.0286202740742361,0.968811454775196,0.0186697582934871,0.493864069926843
271,271,0.0377394487823341,0.0554512766449974,0.89655948037616,-0.0265955547486917,-0.0172461444372271,-0.019317811471576,0.841137056281592,0.455068601077339,0.951009445339435
272,272,0.0373228672902585,0.0545097876003823,0.896867089178652,-0.0269586320069432,-0.0150239754218881,-0.00323609836099218,0.679382832791259,0.919115818104558,1.24070814629077
273,273,0.0368856483044433,0.0535281191612946,0.897222118033573,-0.024880461767303,-0.0181086263842541,0.0161652481489225,0.526722678595705,1.25586543702606,1.29931192834278
274,274,0.0364847675358941,0.0525835508987528,0.897609324945199,-0.0217208094981813,-0.0232183768524368,0.0349360047001285,0.378207041494103,1.34616741547461,1.08418368154003
275,275,0.0361782032916744,0.0517530023173794,0.898013394130102,-0.0196751623650767,-0.0272614369829804,0.0488814528653312,0.269382562030913,1.20099419704393,0.813126457974444
276,276,0.0359716939966813,0.0510506764881018,0.898455941703156,-0.0197919710787715,-0.03019383996332,0.0581604851524487,0.126277855764603,1.04866916606376,0.562721033223732
277,277,0.0358280778749996,0.0504262182969958,0.898945225415197,-0.0213631962298631,-0.0310023181159805,0.0655889538758351,0.0414844557405436,0.935827516273915,0.383949478152125
278,278,0.0357412956488343,0.0498588615784952,0.899445948891669,-0.0227497888812575,-0.0306325019219918,0.0708198381756202,0.0430435016221891,0.970310626852375,0.289369961022283
279,279,0.0357045524075423,0.0493271367353073,0.89992234723847,-0.0229488956393768,-0.0295266847780366,0.0733966173613367,-0.0506708360833506,0.88149261322342,0.0394161665316211
280,280,0.0357102910892553,0.0488091291275438,0.900338077703249,-0.0216186359211341,-0.0269768669643893,0.0730705862635977,-0.141071698514632,0.865962287051548,-0.294178247724038
281,281,0.0357793631767247,0.0482864429469401,0.900700463075204,-0.017469376467575,-0.0238103678595374,0.0685234320668802,-0.202791087753125,0.840396207582693,-0.562261212234302
282,282,0.0359167572565601,0.0477731909243052,0.901032265479396,-0.0111650082295403,-0.0211194317181609,0.0600866688110483,-0.315609146671454,0.829755971321414,-0.771877787512486
283,283,0.0360907131884573,0.0472960984956395,0.901319980687457,-0.00335640904060559,-0.019767366898789,0.0493527620001044,-0.379764587319502,0.800377864925524,-0.898240819595447
284,284,0.0362694032698685,0.0468819190174675,0.90155009569463,0.00382092240115512,-0.019232266768416,0.0380715666744238,-0.414738070375742,0.703628514216902,-0.857522189012893
285,285,0.0364208931311771,0.0465573819486013,0.901709123310466,0.00878319179902354,-0.0173781283627021,0.0283315513601087,-0.291932996993143,0.570591701489598,-0.848427844755678
286,286,0.036572659107164,0.0463288343714673,0.901788019749574,0.0120000203360814,-0.0135631794914144,0.0198670795650282,-0.147227019442901,0.525196224355602,-0.756670181501687
287,287,0.0367455866046949,0.0461791666418054,0.901795375089703,0.014232307260023,-0.00781868991528953,0.0116029495595503,-0.088493192019218,0.521378650665377,-0.701137070501817
288,288,0.0368977235330282,0.0460997315812698,0.90174431938306,0.0160239601632288,-0.000103649873243845,0.00395276076503903,-0.0589012585796268,0.464464746640641,-0.666306787252642
289,289,0.0369870894440417,0.0460815531262465,0.901648162115723,0.0178537952128357,0.00670404450038547,-0.00305481210205708,0.000780569559327395,0.513948557409442,-0.685280006866337
290,290,0.0369717374439909,0.0461151712889469,0.901520465717471,0.0199136911660901,0.011648611128509,-0.00908283353999014,-0.0190760959478801,0.58931220520847,-0.566590031298203
291,291,0.0368137237275054,0.0462060832639244,0.901353361160266,0.0208554074710063,0.0164869729611536,-0.0137563802529138,-0.0270636750694971,0.621381530585165,-0.447889361990605
292,292,0.0365403768601409,0.0463608710136758,0.901139406398465,0.0202810735917932,0.0223952984802982,-0.0170939998862528,-0.0120175457731048,0.640565169818601,-0.342493004462065
293,293,0.0362080159215998,0.046571021913514,0.900893099770335,0.0177636852027386,0.0284688288340492,-0.0196872364862941,0.082556125251378,0.701668748205158,-0.235310308077924
294,294,0.0358733291813865,0.0468275442477594,0.900628861000706,0.014248671364228,0.0337211056980141,-0.0221135260287528,0.0550015108958792,0.658833205707588,-0.201922774350418
295,295,0.0355933395572652,0.0471208190806251,0.900360898975103,0.0102811124909708,0.0372702712758909,-0.0247696069836452,0.0130562936903192,0.576901443506719,-0.157707209571302
296,296,0.0353827707213358,0.0474179891293564,0.900088513329844,0.00710657134723126,0.0380072857572065,-0.0279334313307749,-0.0321884982297432,0.509348409337273,-0.159617552348473
297,297,0.0352039819223015,0.0477233674993305,0.899805711737298,0.00440990305425227,0.0367910164867009,-0.0310686170825438,-0.143220323721347,0.396037287717568,-0.176852426905166
298,298,0.0350356469163406,0.0480832346047234,0.899517450626205,0.00292086862539567,0.0355343185796047,-0.0336822764089083,-0.248499861471175,0.347291075103411,-0.192252216334328
299,299,0.0348564446545378,0.0485450428294573,0.899226952932202,0.00156141838097675,0.0362376774196946,-0.0355228763772711,-0.368089373326219,0.346581988081004,-0.161135911854747
300,300,0.0346450058191024,0.0491575457703307,0.898935553271771,-0.00068130854936734,0.039759861684855,-0.0362269521863617,-0.3362386956959,0.364998054452548,-0.0968779593925038
301,301,0.0344146018898892,0.0499433930125662,0.898631967499817,-0.00463886005982895,0.0470355965815926,-0.0360148286347482,-0.224305187651817,0.445758752020895,-0.0237286284342075
302,302,0.0341797278264799,0.0508700045081978,0.898315575182877,-0.0105495395114049,0.0579560391318664,-0.03496631153046,-0.0476467623767276,0.40597911194409,0.089047142875361
303,303,0.0339205866493758,0.0519044933579789,0.898001268353758,-0.017440887385758,0.0697230983870391,-0.0334809521205952,0.161430020426888,0.423615640075226,0.0745126777562463
304,304,0.0336172326207588,0.0530144437093756,0.897702530443256,-0.0240433338093141,0.0813754105447012,-0.0320046303376223,0.253910485393076,0.501986711033009,0.0495472823708046
305,305,0.0332497144230936,0.0541678859061093,0.897431591330721,-0.029094042726827,0.0915757247657338,-0.0308946772502883,0.259349662964385,0.487215558321856,0.0418484969491298
306,306,0.0327849815404769,0.0553890532667176,0.897159339254997,-0.0330537545563988,0.100766055888061,-0.0303098694212276,0.0989985381187166,0.55901664758833,-0.115501585696537
307,307,0.0322363226610781,0.0567003331529508,0.896874793232623,-0.0374309768351101,0.109060762574317,-0.029395951788406,-0.139284995666312,0.480560597494539,-0.25519794452567
308,308,0.0316535086577327,0.0580665793160435,0.896617138235191,-0.0417057362756206,0.116799575815211,-0.0278377753754987,0.0333541900494561,0.427659080527065,-0.247006643965115
309,309,0.0310864233362986,0.0594519224114132,0.896426097613885,-0.0447102557842389,0.122276968859082,-0.0260669211844601,0.257375677736887,0.247430799887833,0.0752323766041943
310,310,0.0305850970673158,0.060819974273803,0.896341868716492,-0.0456586447289711,0.123611854832265,-0.0237005095108612,0.424761489476878,0.301350289352626,0.467659444294053
311,311,0.0301818889103784,0.0621931330809828,0.896408934299733,-0.0446691023062548,0.122870582301062,-0.0188966762086701,0.291059159027515,0.355265136381518,0.735021200253596
312,312,0.0298447416039823,0.0635949848055708,0.896600074300527,-0.0406034522533055,0.121717107963464,-0.0118268493556547,0.119984520788778,0.33144510121296,0.677989944030744
313,313,0.0295266466467045,0.064990998424748,0.896848373348237,-0.0354379808627907,0.121116167694063,-0.00404592640608444,0.122876933532177,0.12594111498685,0.392763750211148
314,314,0.0291794766925392,0.0663469737396144,0.897087027520669,-0.0302151361808572,0.121377041122403,0.00239206486255018,0.208416514948952,0.00373650889388067,0.162320194743551
315,315,0.028753968018603,0.0676288465302174,0.89724952313546,-0.0255627088597432,0.123641128390137,0.00589494764632947,0.283017285156861,-0.0170725384110547,-0.00700008694643531
316,316,0.0281890384272597,0.0688402928124259,0.897330975668474,-0.0213824754933862,0.128696811528313,0.00571338093894372,0.0868345222896819,0.00187606225448688,-0.230933670690443
317,317,0.0275166038407596,0.0700045828369089,0.897377223394951,-0.0185417706951503,0.13340215773204,0.00287642865233706,0.0966458525459504,0.0481625444264102,-0.256793079794202
318,318,0.0268264966135068,0.0711168669690903,0.897398362818695,-0.0177030248546367,0.134203971056645,-0.00132816192933417,0.214074170342002,0.0330219339368374,-0.144097181141287
319,319,0.0262088793215349,0.0721719510007775,0.897404361907754,-0.0175950438919693,0.129698894045194,-0.00542693282068985,0.250412792932377,0.0176544490973337,-0.146421944573297
320,320,0.0257541313344305,0.0731642356372331,0.897404827227863,-0.0172796628511301,0.12066431948638,-0.0080400725251172,-0.0110823414315317,-0.098024229244914,-0.111726872017622
321,321,0.0255021435944709,0.0740725709227938,0.897366952972034,-0.0168415664328405,0.107020558189155,-0.0100432845832654,-0.250574302229149,-0.105523677848377,-0.0998826439400578
322,322,0.0253922247308902,0.0749000212474073,0.897287569592491,-0.0165038079791635,0.0909046843779109,-0.012383369276844,-0.182846951064456,-0.124952257269449,-0.0414359974096006
323,323,0.0253640252888445,0.0756770797139246,0.897219173491447,-0.0168732104689827,0.0748047744639196,-0.0139563290196789,-0.0177036669161009,-0.0753348245830787,0.142513458635044
324,324,0.0253575018582229,0.0764344168819347,0.897212464070833,-0.0169785079974528,0.060660679792691,-0.0135369380537124,0.175404636715781,-0.0551248359751994,0.378072079327682
325,325,0.0253130375467164,0.0772029891008231,0.897316319325681,-0.0164937916006567,0.0492839278841792,-0.00987703222988811,0.249049886572014,-0.187531363190695,0.678991984761966
326,326,0.0252122788592211,0.0779811199264837,0.897540348519305,-0.0152958770255858,0.0424728718525724,-0.0012747084848258,0.392066716838455,-0.310916770694637,0.896916788759991
327,327,0.0250950229085667,0.0787475434949031,0.897851317931841,-0.0135087142506105,0.0393098356310129,0.0111641393932229,0.573679076392811,-0.34710009598096,1.11675602754663
328,328,0.024989263790398,0.0795045740819427,0.898232212534547,-0.0101621231463504,0.036965218660058,0.0251382798125776,0.572186983294386,-0.560961436003322,1.19826630719928
329,329,0.024923075563812,0.0802551732001529,0.898665525070341,-0.00595685028525273,0.0359911797759774,0.038459846224325,0.455515263410011,-0.695690029826335,1.14137843351376
330,330,0.0249246331070344,0.0810028519891222,0.899133290160682,-0.00210904409622771,0.0335692036917392,0.0489347272600489,0.331544070980575,-0.703172987431272,1.02942347598314
331,331,0.02499216925465,0.0817730315020753,0.89966572582907,0.00158317537036276,0.0312864866322998,0.0570892392534007,0.147232333967691,-0.728811105539392,0.794677678832101
332,332,0.0251073002984435,0.0825641602209697,0.900273605633403,0.00586296318117343,0.0298344709339254,0.0642790218786245,0.0400898135013707,-0.624351982001086,0.571254836544506
333,333,0.0252732580942319,0.0833397025677134,0.900909155168816,0.0107164806478419,0.0294300559736336,0.0697116476882431,-0.0779032223023451,-0.620710466544534,0.359042578209215
334,334,0.0254931239437563,0.0840632135317352,0.901524125403012,0.0162803692419179,0.0288301398687147,0.0727935022419362,-0.0560166022898245,-0.697294641873638,0.186102172815863
335,335,0.0257698179973802,0.0846982860871885,0.902069835115886,0.0228334431900253,0.0273928578436818,0.0731398667546709,-0.0326726312770434,-0.763447102616935,-0.0138066130232641
336,336,0.0261194491336229,0.0852545162593156,0.902553550981169,0.030047089009077,0.0236166262757105,0.0699362189688259,-0.056679594600974,-0.858378615735675,-0.225653564794753
337,337,0.0265401773215137,0.0857568950926414,0.903006267699569,0.037194079838941,0.0184305888014804,0.0634583911724323,-0.0294182345640449,-0.84788694137961,-0.447108170536197
338,338,0.027007886388623,0.0861916851964935,0.9034142298768,0.043528108211401,0.0129354266922884,0.0547167758522097,-0.00321909468842057,-0.869689099704287,-0.682054334206935
339,339,0.0274984156714213,0.0865446636294539,0.903763217951648,0.0485311771487913,0.0073734597400845,0.044887245031758,0.0715983501099705,-0.865769645135261,-0.82902964669856
340,340,0.027987531634552,0.0868012888099867,0.904038721389192,0.0524082599492274,0.00288799806595197,0.0355553995000164,-0.0033767596811331,-0.897390567683702,-0.876069901407148
341,341,0.0285138273292327,0.0869658747855156,0.904233992066363,0.0560318724125388,-0.00155742490349534,0.0265120752420948,-0.0706794530779587,-0.894815403796556,-0.899330887996038
342,342,0.029093371972106,0.0870474825122139,0.904357348401005,0.0597634137799398,-0.00664335930744996,0.0170177945343974,-0.119004889198075,-0.765366155086386,-0.878694382870292
343,343,0.0296680807355565,0.087038697077776,0.904416988148327,0.062202833852927,-0.0125360989970489,0.0075003036550512,-0.0947092513808893,-0.657688207929593,-0.799687591026933
344,344,0.0301798698877366,0.0869322477281372,0.904421433932317,0.0625057125328156,-0.0177281761196022,-0.00152087688152294,-0.014017308297226,-0.663723744228633,-0.726950649577981
345,345,0.0305706751375624,0.0867209952181048,0.904379642728815,0.0602251564333076,-0.0237125214235427,-0.00936398136640763,0.0810885431628131,-0.548459422959852,-0.719394777760316
346,346,0.0308192648481182,0.086374577136856,0.904284620724261,0.0547339370233048,-0.0305995721532367,-0.0160056756046734,0.268962646318948,-0.516591216106757,-0.626896792647872
347,347,0.0309641663041388,0.0858978045917598,0.904132074816253,0.0477365024950008,-0.0378755828859207,-0.0216050423079299,0.230326320601861,-0.538838503839891,-0.651815061607304
348,348,0.0310370325088157,0.0853364107995607,0.903935478303053,0.0405553312688643,-0.0451395642680931,-0.0260897378561544,0.184941382148925,-0.553495841688409,-0.592739798033208
349,349,0.031069581138148,0.0847361583861842,0.903708238923757,0.0343296732330611,-0.0525375792380792,-0.0297144325058107,0.112480411209071,-0.548264234692515,-0.504878265571938
350,350,0.031093589078606,0.0841428359851254,0.903463521686696,0.0295207990509724,-0.0586886612576939,-0.0324865457485221,0.0513616580728842,-0.535361331306622,-0.342900560006113
351,351,0.0311044400592577,0.083585753596987,0.903200691858357,0.0246041569299617,-0.0633410935801689,-0.0341334676779287,0.039094798268484,-0.542914620645058,-0.177789433713437
352,352,0.031080915894775,0.0830351157260991,0.902915268021067,0.0201658412520541,-0.0664260222369453,-0.0344250160930214,0.00419485414837672,-0.510255188386508,-0.0881967939341712
353,353,0.0310299364105,0.082447557608616,0.902613156362785,0.0163284585644468,-0.0686726246693976,-0.0340271615745755,0.0118474231819404,-0.428093546617693,-0.0637370819778404
354,354,0.0309584671827608,0.0817788902067284,0.902298263630032,0.0125292965650392,-0.0707954721948383,-0.0333184146971696,-0.0625858331807382,-0.44835476748501,-0.0403961533806275
355,355,0.0308735048187048,0.0809840645521976,0.90197226586102,0.00893335939368049,-0.0740004631745065,-0.0330800118949159,-0.104495357838347,-0.464375187884716,-0.0276506599337864
356,356,0.0307327808761731,0.080047524914691,0.901628610797294,0.00551493030559062,-0.0798520145874324,-0.033938006506902,-0.0702044337424183,-0.530000934292816,0.000837817928979587
357,357,0.0305315428521812,0.0789978844355965,0.901267032117039,0.00240678712216808,-0.088508016166599,-0.0355065197868723,-0.100720824435758,-0.548303887132201,-0.0525024807693535
358,358,0.0303330677915576,0.0778561332465667,0.900895566038084,-0.00121476209617846,-0.0974647446197973,-0.0369122678561137,-0.060479697546722,-0.641736875760202,-0.122947826849798
359,359,0.0302007489864781,0.0766438186604002,0.900520371815489,-0.00430915671768497,-0.106307371797691,-0.0373977158389501,-0.0268432131440901,-0.599719810206262,-0.185507376842486
360,360,0.0301981504199762,0.075383124914311,0.900145937501036,-0.00632740030212122,-0.113478651952639,-0.0363433405884359,-0.00232841260507529,-0.391053321952156,-0.14705621278132
361,361,0.0303463647781846,0.0740142027213338,0.899719661724904,-0.00712682799460767,-0.120157768807469,-0.0331595100853341,-0.113617869788423,-0.51078441628639,-0.145147448083308
362,362,0.0306032794895401,0.0725221062673702,0.899235350239987,-0.00751818052561529,-0.126540338409861,-0.0276151427186673,-0.170772676783512,-0.485638714663242,0.0314721854856776
363,363,0.0309377950378009,0.0709977617977463,0.898766541652311,-0.00515828448151427,-0.13189343574003,-0.0208650165055019,-0.271574271856436,-0.287761179638024,0.504619850240089
364,364,0.0313187680774026,0.0695330419948951,0.89838715645019,0.00213553472717152,-0.134029720256255,-0.013754592077135,-0.115872423025974,-0.257797606478656,0.867853742462035
365,365,0.0317149681746789,0.0682203710116535,0.898171427901561,0.0115835085872177,-0.130759951058793,-0.00726072439134714,0.169436286039949,-0.20200348050517,1.36870273496244
366,366,0.0321244882637985,0.0670498471074802,0.898185481092058,0.0214407400392917,-0.123096035680804,0.000648485510393425,0.380077346500746,0.264825135887081,1.5373309402331
367,367,0.0325684607486539,0.0659612392205498,0.8983786274766,0.032657280919213,-0.112182645056537,0.0105380057407859,0.239787259564265,0.529307997307378,1.27831247537387
368,368,0.0330498640436901,0.0649712017401533,0.898650830890274,0.0440274472474322,-0.101225981387285,0.020217510868985,0.0917686115668939,0.642326840518874,0.739762285882167
369,369,0.0335712420904462,0.0640962187310488,0.898902921274396,0.0544942068190025,-0.0914862996917371,0.0271746793985696,0.0112985729640522,0.468856827651162,0.322846381699382
370,370,0.0341347417709984,0.0633528782704127,0.899036711622996,0.0626222088874361,-0.0854746116620352,0.0297768856136326,-0.0392596827473386,0.159995636755023,-0.065539301120282
371,371,0.0347947239445943,0.0627880911572149,0.899045389018132,0.0691753024616009,-0.0821541724398149,0.0264160247331208,-0.0835303906501067,0.0465992452767814,-0.343268579618399
372,372,0.035548823674315,0.0623908886385596,0.898997587455681,0.0734723949236759,-0.0778661535658667,0.0185744988379061,-0.0437020254456365,-0.0361627452637965,-0.522972396571105
373,373,0.0363144032371063,0.0620906425000772,0.898908506208407,0.0754097207447412,-0.071245865981989,0.00846326497559628,0.00547842348601484,-0.118933490508288,-0.546292323176835
374,374,0.0370094980625088,0.0618161449621176,0.898792155402443,0.0760678896097246,-0.0644159205746771,-0.00174568893775857,0.0728543279969989,-0.11851387878288,-0.572383021391314
375,375,0.0375526324259868,0.0614957604932543,0.898661150351968,0.0767272942955862,-0.0578150847330873,-0.00989730762891789,-0.00351649413280673,-0.138187428705148,-0.622620369899414
376,376,0.0378979272208242,0.0611353969905379,0.898495774718001,0.0760690455257678,-0.0494560357326319,-0.0166696327339585,-0.00683164743848255,-0.207617705257161,-0.594583045911064
377,377,0.0380995732211893,0.0607810711799945,0.898289640964917,0.0738644897135335,-0.0382832084881192,-0.0236221448400115,-0.0389665590248617,-0.205955109747815,-0.621711187830969
378,378,0.0382262979673034,0.0604218973052478,0.898073276664201,0.0680912937512045,-0.0258501278287759,-0.0295686396023895,0.112610059974623,-0.0403897439876737,-0.454376686759523
379,379,0.0383470337836636,0.060048053010133,0.897875698179637,0.0585660598071818,-0.0127728697176401,-0.0333613289534443,0.387113990447084,0.231599191991911,-0.0769555072470152
380,380,0.0385311686397899,0.0596506375751013,0.897724400279518,0.0474589179069769,-0.00145435184314507,-0.0331296648382251,0.389106507253809,0.647239532147924,0.187855262393542
381,381,0.0388018245898398,0.0591995751732073,0.897600737959673,0.0359249568431568,0.00720444653736641,-0.0270468521676498,0.243033809710784,1.10046059113191,0.445920710641312
382,382,0.0391125631865128,0.0587021502928126,0.897485204608806,0.0250452864169199,0.0134816233523502,-0.0165831046563639,-0.0029213188169192,1.47925001883533,0.739944154725267
383,383,0.039429111286667,0.0582055164621515,0.897402747755348,0.0164067010370922,0.0191992204134015,-0.00377716537704112,-0.308511520363186,1.54912873915508,0.802509463332748
384,384,0.0397175346823658,0.0577562083496524,0.897378011847018,0.00932335831863245,0.0237093917771501,0.00906212362695847,-0.40516932971983,1.37821433586294,0.854241272650174
385,385,0.0399441389793941,0.0574002237187244,0.897435358616696,0.00415005793778845,0.0255076632760802,0.0190495361440539,-0.351441715673143,1.05449502660559,0.830177766192417
386,386,0.0400830734325995,0.0571703189940107,0.897602114044407,0.000200604296632952,0.022525982337736,0.0262798330141354,-0.277570206535381,0.769623604032451,0.716576997829735
387,387,0.0401572965702425,0.057035418098523,0.897861022260674,-0.00322955511614655,0.0159288937218633,0.0325569999084467,-0.206755593464564,0.501100124818207,0.577905072050847
388,388,0.0402063176305688,0.0569453902701934,0.898168736814503,-0.00631308838781491,0.00799916227054356,0.0374449935602999,-0.178553741048081,0.382381035570542,0.427747764482282
389,389,0.0402696536079871,0.0568501324490637,0.898481013743081,-0.00838313726629163,0.00116389622004195,0.0406173319635218,-0.235919203320459,0.383346592232494,0.207147922441386
390,390,0.0403869227850878,0.0566996132817298,0.898752851361137,-0.00838917438031912,-0.00160074200214739,0.0416047874713231,-0.432228435501775,0.434936795219253,-0.074873075625646
391,391,0.0405860345270985,0.0564519605937776,0.898991288283419,-0.00648806171777317,-0.00141226315937185,0.0397772206646955,-0.584572863829677,0.390739930013199,-0.331017320996839
392,392,0.0408409950001563,0.0561403615015582,0.899224170451185,-0.00230535806164775,-0.00247025831662791,0.0351188539401292,-0.619320142677854,0.412596377989191,-0.403677709771797
393,393,0.0411105737489236,0.055827671799447,0.899437234295784,0.00205113522619119,-0.00561589607888783,0.0284126727810784,-0.530649296908637,0.435746171546854,-0.398426050975014
394,394,0.0413533022718579,0.0555769791973065,0.89961615488425,0.00541427824900562,-0.00863649049585797,0.0211655372272994,-0.36249130281478,0.435509038989299,-0.399649570211583
395,395,0.041527447590799,0.0554515256607002,0.899746672967309,0.00709932350128355,-0.00927767695348488,0.0146670403659329,-0.256416829367454,0.366303062841902,-0.484680418592133
396,396,0.0416398244998651,0.0554660387537934,0.899827775977794,0.00688612443965153,-0.00542676901290807,0.00932937767709702,-0.187446925903074,0.337036968470803,-0.494867293770955
397,397,0.0417180647294264,0.0555789164226369,0.899868331548595,0.00542195234869306,0.00131198123629817,0.00427767013147469,-0.132631539952272,0.467211874919174,-0.500919217901719
398,398,0.0417515207211492,0.0557689627883858,0.899869318219754,0.00288055489879406,0.00973606061266275,-0.000647050049887199,-0.143361644807446,0.57980894658269,-0.482631144389857
399,399,0.0417295988922995,0.0560148748150616,0.899832085670279,-0.000605964013448237,0.0187422595126064,-0.00563324415175044,-0.115081739576787,0.651810048929367,-0.483879566102356
400,400,0.0416417634785222,0.056295093641291,0.899758399613418,-0.0037675700911571,0.0260466727671798,-0.010620688778846,-0.122345630806006,0.666246917030039,-0.448962230683123
401,401,0.0414662836505229,0.0566186218276281,0.899646849671367,-0.0068373378277098,0.0302798749731873,-0.015757669256488,-0.107973155860435,0.569072978903989,-0.467550099595485
402,402,0.0412099877803999,0.0569993883906525,0.899499102044837,-0.0100432297907523,0.0327928926538411,-0.0208097364637749,-0.0916396784515331,0.533626536655394,-0.473112482945593
403,403,0.0409052536550389,0.0574229734201097,0.899321575346589,-0.0134050020760462,0.0346322810073968,-0.0254347101688358,-0.0671599934968588,0.495983811583076,-0.469880429731499
404,404,0.0405845015209222,0.0578751418695994,0.899119970956274,-0.0167040185445544,0.0372948107798417,-0.0292531283431662,-0.203476668740809,0.470209816054525,-0.424929673500545
405,405,0.040280198474995,0.0583419636707017,0.898898985512155,-0.02029040096419,0.0402335076786099,-0.0324499513811459,-0.275220288329956,0.489126842025164,-0.373660878027863
406,406,0.0400150412312274,0.0587878596810735,0.898653852365835,-0.02483027605215,0.0420548223931843,-0.0353425150740198,-0.310339549315955,0.453714437703434,-0.290133899227963
407,407,0.0397671928237329,0.0592212317428674,0.898384820503098,-0.0295132197188296,0.0417999515174695,-0.0380524178590483,-0.313224498349817,0.352824031997362,-0.234256908253558
408,408,0.039502525590083,0.059694816672344,0.898101929611303,-0.0336675754089175,0.0415482673121108,-0.0402794098526504,-0.3649017494729,0.328902716639074,-0.23570093977922
409,409,0.0391871457541931,0.0602620071204537,0.897813189850595,-0.0364339235961498,0.0425034220145745,-0.042060254701808,-0.439794761660123,0.279042595342422,-0.198964658540535
410,410,0.0387873314204146,0.0609768642260676,0.897524519123272,-0.0388490978723497,0.0452418611560714,-0.0437578792178902,-0.447194939856823,0.338090513886831,-0.206697361946994
411,411,0.0382794736885749,0.0618790327465535,0.897224490315378,-0.043000834486827,0.0513123518728567,-0.046216369760749,-0.240538820995398,0.375113156447066,-0.0941392851912349
412,412,0.0376860677440681,0.0629330944314645,0.896908651086594,-0.047778442716014,0.0619667365885255,-0.0493689488993161,-0.0741303380518342,0.269292348254823,-0.0997169653881969
413,413,0.0370426503029803,0.0640807910427529,0.896590933115837,-0.0513642305403043,0.0743281955928761,-0.0520176709442908,0.0479910903404714,0.150904957058011,-0.178662242331415
414,414,0.0363850162144186,0.0652636688300797,0.896283861007673,-0.0548159365484411,0.0861485373740506,-0.0528004810604603,0.221887935040736,0.187459792587648,-0.237123899283994
415,415,0.0357492529765667,0.0664231245053526,0.895998830879211,-0.0554029271619488,0.0980298140878048,-0.0504623516776969,0.212370801632922,0.190917433077698,-0.510713706866593
416,416,0.0351186285628974,0.0675697311277921,0.895708643076881,-0.0539618434215828,0.107407509961287,-0.0427998090642379,-0.0145182850784617,0.0372844798285943,-0.537423270466141
417,417,0.0344693004935185,0.0687427383994664,0.895403251599498,-0.0509354473292933,0.114521700235238,-0.0303726697468481,-0.0879532455680589,0.0146783628360904,-0.1726270214399
418,418,0.0338268211173907,0.069926309396591,0.895119576763397,-0.043713432122376,0.118136964825502,-0.0174027068114733,0.163570116403602,0.178412030936148,0.85921995988033
419,419,0.0332168358248306,0.0711043809627195,0.894894505179458,-0.0405984440699095,0.113166644235138,-0.00525302074996413,0.887298075886376,-0.038894676969729,2.145078228183
420,420,0.0326652015472985,0.0722607960552175,0.894764727982735,-0.0357561926004651,0.102872333138319,0.00420540906260366,1.11144517818068,0.131305967438028,2.54915588690517
421,421,0.0321548079258369,0.0734201621655114,0.894758459034379,-0.0234678533523951,0.0960675554288741,0.0117949060629907,0.396029616140616,0.131992318679062,1.74894744861845
422,422,0.0316694994947625,0.0745940880088221,0.89485042398176,-0.0150855452453772,0.0927951193983131,0.0177780029789712,0.761275942938902,0.00183209576165,1.06721331979749
423,423,0.0312361703797357,0.0757463573581093,0.89499756377638,-0.0122557388636334,0.0940438947440498,0.022006785243176,0.755564150507098,-0.0377577777695544,0.353550413959386
424,424,0.0308806559315432,0.0768394919711339,0.895157204608402,-0.0104848748953488,0.0981606482149766,0.0245853857431452,0.230279895012005,0.0339948995593476,-0.478196619729224
425,425,0.0306278001146175,0.0778345664087614,0.8952869442489,-0.0130025858652084,0.102355186766702,0.025014868109423,0.129074359469692,0.200161367675874,-0.744545898497924
426,426,0.0305271904960378,0.078719306435671,0.895370501841948,-0.0166031118698428,0.10595804522236,0.0221435180232621,0.0754499280352308,-0.0089167321603484,-0.660936126130259
427,427,0.0305611630715057,0.0795172995746785,0.895437607749177,-0.0210985019332688,0.105169926918729,0.016354739099452,0.0995781729367776,-0.0748712717850249,-0.449171871123413
428,428,0.0306536284127173,0.0802434781589575,0.895515009125172,-0.0239636699917849,0.0992282412611866,0.00957597509547994,0.147955322438881,-0.00597390393794927,-0.336008913298312
429,429,0.0307291076370685,0.0809142373812201,0.895629107834929,-0.0229303320276614,0.0910131107544045,0.00382299805592286,0.0233512890830871,0.0630257149467077,-0.281713473839526
430,430,0.0307125477680359,0.0815472288225968,0.895805974219191,-0.017671081480708,0.0813488020837544,0.00117519990386734,-0.24512382905634,0.128102101778576,-0.272374079759332
431,431,0.0305732715977091,0.0821205450446436,0.896054751553675,-0.00873709634810471,0.0708163958681563,0.00209315798708922,-0.31605773381442,0.158404675628416,-0.171847195162805
432,432,0.0303613769673019,0.0826228656560443,0.896359753380402,0.000958054135462623,0.0585954190198913,0.00480787047630153,-0.0448772794019221,0.15006583085089,0.00469602520654457
433,433,0.0301230764556558,0.0830884379848381,0.896709140192468,0.00984922735227551,0.045317257099791,0.00858282593246064,0.289198177904033,0.0724232365430694,0.285737824556807
434,434,0.0299047079456792,0.0835519238228404,0.897090272501547,0.0163154122670319,0.0322446876269652,0.0131508409796674,0.553790009318569,-0.106269287206198,0.564840878793875
435,435,0.029752847223677,0.0840485786207357,0.89748965422434,0.0195607480993651,0.0218154975623076,0.0177860929671592,0.618043184453736,-0.445320807828276,0.644164674769883
436,436,0.0296711428294982,0.0846162906176003,0.897924443200703,0.0191181395243437,0.0130429900637702,0.0233083465547318,0.532417772923766,-0.873640728420575,0.632421778903534
437,437,0.0296285628583882,0.0852320770969499,0.898404151844257,0.0163757526059255,0.00586295296465175,0.0301818975376972,0.386537310678286,-1.17469812887637,0.576254399792063
438,438,0.0296199308875905,0.0858407477491742,0.898902696983938,0.0125761766111574,-0.000217208265293058,0.0373135628147659,0.172652034544392,-1.19964283400324,0.37412283444043
439,439,0.0296401842231448,0.0863876477784571,0.899393238969597,0.00882981757858596,-0.0048971911699705,0.0435182720249351,0.0946989496782799,-1.11986443768973,0.176622192415908
440,440,0.0296843453345687,0.0868185001592894,0.899848201468555,0.00671920604347021,-0.00848471104443053,0.0476199412399718,0.0239438178094482,-0.965889630797032,0.0599491442086472
441,441,0.0297520647285246,0.0871116867278984,0.900276244309127,0.00519239745748489,-0.00956007421419325,0.0492797635461811,-0.134095726166038,-0.830163903380312,0.0162360593153412
442,442,0.0298469339983,0.0873051790393441,0.90069543049952,0.00359215950582367,-0.0091531466931626,0.0493119740355252,-0.255995598917791,-0.689549610428402,-0.0400352891394135
443,443,0.0299698139644942,0.087433417243564,0.90109078639632,0.00281037587187392,-0.00867844179843427,0.0480758642405286,-0.289385289761608,-0.603403649019142,-0.0633985762302209
444,444,0.0301214939225923,0.0875298173629936,0.901446012079847,0.00309498404731912,-0.00851431823003417,0.0458913616225516,-0.283266939331016,-0.556249688983818,-0.113571536269589
445,445,0.0303027170956107,0.0876269488552019,0.901743695475515,0.00604975441000934,-0.010361299131397,0.0426146670462747,-0.219761678640096,-0.529370134717068,-0.250317790504623
446,446,0.0305349823058463,0.0877492142963905,0.901981600534117,0.0114935073902192,-0.0132746792474357,0.0379718726463412,-0.126528234656213,-0.609063995471928,-0.357143009997621
447,447,0.0308178213399871,0.0878738219019642,0.902168983279878,0.0184118112517185,-0.0163056565587941,0.0318210047472591,0.042322050715676,-0.678356732880063,-0.436575849112122
448,448,0.0311189172347607,0.0879620893811091,0.902304838042166,0.0265583668672644,-0.0193348183108792,0.0249573123000485,-0.00879409812232002,-0.684658695638364,-0.51442672859589
449,449,0.0314058137260782,0.0879754271308752,0.902387999566654,0.0334889629470255,-0.0216513764595432,0.0182156679719332,-0.00228505292075496,-0.748978786105285,-0.533287661288571
450,450,0.0316459343449212,0.0878754504356135,0.902417361092722,0.0386345826743953,-0.0243023151231359,0.0122806470557686,-0.0343643491387268,-0.723839625275805,-0.577173246907681
451,451,0.0318474614969435,0.0876422382900425,0.902374156768338,0.0409364050540737,-0.0277776530390052,0.00711862407471371,0.0340939459022058,-0.747332524978251,-0.487841865527281
452,452,0.0320319341447163,0.0873010887115601,0.902258675357833,0.0419804330907342,-0.0335256718701204,0.00266246171362431,0.0501188589015294,-0.7097794788153,-0.445575503430429
453,453,0.0321868321252125,0.0868818267823433,0.902098948535848,0.0413164557609245,-0.0408772299198504,-0.00129189904725687,0.156745210074466,-0.709722432096824,-0.386077486643555
454,454,0.0322997023578432,0.0864144557261596,0.901923336446601,0.0391259431177783,-0.0482501551218478,-0.00481839403676403,0.201765816873578,-0.63495554968184,-0.248107871127063
455,455,0.0323581307828134,0.0859291099316104,0.901760391288179,0.0359570666638572,-0.0543960428693481,-0.00765640642193091,0.223327615323033,-0.617394430744965,-0.089058946032649
456,456,0.0323507286446055,0.0854377089913371,0.90161602216392,0.0318228635709754,-0.0591122412064938,-0.00914527745358878,0.189376135120848,-0.560134767275742,0.0681293838421348
457,457,0.0322858730133028,0.0849213736253976,0.901474470123641,0.0268864889396348,-0.0631790809688653,-0.00889572244577238,0.0539863181880899,-0.45897461647284,0.0916883886139675
458,458,0.0321807981338977,0.0843636990708522,0.901331400197139,0.021394037927049,-0.0667496545134639,-0.00768501382014333,0.032365809060871,-0.460373258384434,0.115673746827424
459,459,0.0320527593547399,0.0837475658217335,0.901181535864051,0.0155292861788168,-0.0699811288016479,-0.00656205895503835,-0.0486857295441049,-0.526280618464545,0.0301256560214693
460,460,0.0319190194837609,0.0830550097917041,0.901018370003098,0.00884011139948063,-0.0725249905632199,-0.00656904506129779,-0.0391958262720811,-0.533237246241769,-0.0158820940243366
461,461,0.0317772097997606,0.0822944230950714,0.90084520720754,0.000607068762878025,-0.0763788210818006,-0.00816795620744282,0.0351945170501738,-0.508970346141753,-0.0792216058126393
462,462,0.0316158204768856,0.0814776422683721,0.900669442906546,-0.00836516592765502,-0.0814229886843398,-0.010537774262497,-0.0138703095445612,-0.420055011859318,-0.189310829338705
463,463,0.0314382998997824,0.0805906932748884,0.900488189300331,-0.0158946911445709,-0.0870632680354472,-0.0132363384413351,-0.146177547345445,-0.444397810618538,-0.30887792244875
464,464,0.0312480395467086,0.0796189256759212,0.900296379364755,-0.0214003250834389,-0.0934561678653818,-0.0160608909801095,-0.158825738481473,-0.596298407734061,-0.295708904950995
465,465,0.0310484343843534,0.0785471358818635,0.900086763887357,-0.023808139603951,-0.100502301917325,-0.018663750666716,-0.0877894012334017,-0.672876518043442,-0.309577611701308
466,466,0.0307988459644571,0.0773729261365047,0.899854882804804,-0.0234400812885178,-0.110125053353812,-0.0221785390585302,0.0192690790218578,-0.568737652634109,-0.283058717292697
467,467,0.0304968177302385,0.0761043538303878,0.89960386610072,-0.0206734284260367,-0.120019164247983,-0.0257425814573014,0.0271235871769051,-0.577712441614444,-0.361184627161419
468,468,0.0302031365652108,0.0747424344111062,0.899335913552538,-0.016965314353035,-0.129458711706044,-0.0289517581323669,0.0645575291202925,-0.591473458121534,-0.41659768378136
469,469,0.0299787381935959,0.0732892694959558,0.899052706849818,-0.014006881254932,-0.138393658983198,-0.0314269771413212,0.115578841201488,-0.567279006142696,-0.376062511490256
470,470,0.0298847106587142,0.0717480059067115,0.898755524548932,-0.0124662727948433,-0.147315933530582,-0.0331544872952513,0.0194236737528573,-0.473477592322327,-0.365456217423088
471,471,0.0299320000238226,0.0700710726133265,0.898412032651682,-0.0121340648372785,-0.155116653015598,-0.0336793456628333,0.060812352644769,-0.361897487704441,-0.238084987748734
472,472,0.0300801699698731,0.0682573503298065,0.898018795224262,-0.0105188873140259,-0.161261778056345,-0.0326772978994749,-0.110430215435901,-0.422446948391863,0.0967322257826754
473,473,0.0303133043235324,0.0663806809194182,0.897621080360159,-0.00493977252373451,-0.16717241816917,-0.0304916296542225,-0.305573098653059,-0.392204142487719,0.0630900368944355
474,474,0.0306154557571794,0.0645150748819999,0.89726502296846,-8.47153232582417e-05,-0.170966423165182,-0.0285475666286463,-0.072462781004376,-0.437750317544721,0.144885547968147
475,475,0.0309706504827996,0.062734559181187,0.896997515476385,0.00370786575987463,-0.171727719768346,-0.0269651702287603,0.0830660950336835,-0.199209054800803,0.363257815174421
476,476,0.0314097952884882,0.0609918655596706,0.896854322225745,0.0078873747807649,-0.170513333439911,-0.0242992895910227,0.231822104335596,0.0954111166194824,0.345108886670709
477,477,0.0319441968320032,0.0592393665369535,0.896805036770297,0.0125271510258903,-0.168170070574531,-0.0209903842285585,0.165419674777307,0.198530045858206,0.21114388068367
478,478,0.0325280145937038,0.0575497214901151,0.896797758859421,0.0186693049457595,-0.164901471122765,-0.0178804319936141,0.0295159351176159,0.251826844103514,0.124703969704999
479,479,0.0331146155469544,0.0559944499931716,0.896780431653016,0.0276471443593432,-0.1599871917167,-0.015440266967596,-0.247175190014449,0.209108795245344,-0.00479686069471015
480,480,0.0336565650147092,0.0546441144008553,0.89670107289284,0.0363290695047679,-0.153714554402053,-0.0144918368955849,-0.102356038252291,0.188951120999329,0.0150208470625026
481,481,0.0341835508090439,0.053558979245567,0.896543976580172,0.0447884992495465,-0.144348459374309,-0.0156174012077591,-0.0839949865512582,0.160024309004575,0.0352369736969874
482,482,0.0347261313768205,0.0526907755315736,0.896346211596774,0.0532481515184101,-0.132080116987959,-0.0182747167228406,-0.106762771391421,0.161110699444792,-0.0177832493683575
483,483,0.0352381347093268,0.0519467967157311,0.896134805484809,0.0587805774289289,-0.118324391448487,-0.0214192255095044,0.108706953445065,0.15310453684694,-0.0660559225514206
484,484,0.0356738332058154,0.0512346440035666,0.895935863897259,0.0615789324365711,-0.104407855039077,-0.0243773137346611,0.224447908819718,-0.03572497597061,-0.22523140415159
485,485,0.0359877350103812,0.0504623649276558,0.895774313877664,0.0615611599250607,-0.0912016988504804,-0.026469737188458,0.348866506285502,-0.100468139978414,-0.400453873338018
486,486,0.0361132568677347,0.0496319065418402,0.895635532467152,0.0580195685130923,-0.0776426370881682,-0.0283949808007884,0.292558731938634,-0.314096592481213,-0.45511178505383
487,487,0.0360799328596986,0.0488045961712389,0.895504919175836,0.0512651180532237,-0.0643079782868995,-0.0308506428851242,0.282109325054339,-0.389223703649245,-0.39537014612801
488,488,0.035986611764038,0.0479780999497799,0.895405513584455,0.0417063620408879,-0.0529374221922341,-0.0325974263869252,0.428478964144524,-0.288228438785621,-0.10426546311821
489,489,0.0359327442316761,0.0471500546906508,0.895358846837681,0.0313975942129907,-0.0435781383478595,-0.0320792923365581,0.534436196924581,-0.0770592065749761,0.208971638638094
490,490,0.0360186680858852,0.046317890405415,0.895384961998787,0.0222175228435433,-0.0366718420071189,-0.027664156120593,0.5371000687023,0.199980337444629,0.527544229135087
491,491,0.0362955780662942,0.0454594684242648,0.895481099707459,0.0154353836397963,-0.0339750255016675,-0.0170026549737472,0.366302766099984,0.51381037601179,0.875490349971217
492,492,0.0366967889330428,0.0445773511234068,0.895632830449707,0.0106685931553676,-0.0355404277751441,-0.00163881659363063,0.243099477072532,0.767984580682714,1.16163474618123
493,493,0.0371468440641968,0.0437053567927668,0.895841466640562,0.00784985054755898,-0.0389155293283484,0.015577670219011,0.162540803048055,0.990648985488833,1.23208143868049
494,494,0.0375706005329566,0.0428766712931013,0.896107918827373,0.0064772913307282,-0.0408706934412916,0.031909175192613,-0.0565609131561378,0.989244911635321,1.12078011725842
495,495,0.0378930705060987,0.0421239393642643,0.896432703061222,0.00569583895145013,-0.0419208268628448,0.0447078750385248,-0.249311726016936,0.860884386935879,0.924992343061691
496,496,0.0380892602700393,0.0414892970243005,0.8968432337064,0.00444394619466705,-0.0428014059538595,0.053827048322873,-0.137376982234846,0.798117812229397,0.731696798729436
497,497,0.0382099703898113,0.0409501295321264,0.897338071844907,0.00219015027955794,-0.0422743764701189,0.0612287352024065,-0.0453591649082076,0.691682228753668,0.510853873948923
498,498,0.0382936896325445,0.0404416656028809,0.897873540715561,-9.67574429820933e-06,-0.0423065789243907,0.0666696672744669,-0.0114441892873052,0.774808758319012,0.348278636403332
499,499,0.0383788676684757,0.0398993053688119,0.898405060697725,-0.00189415009155756,-0.0411983753366646,0.0698879545721752,-0.0288000573787911,0.783424626845251,0.169310050079981
500,500,0.0385040387632577,0.0392586344940301,0.898887319077875,-0.00237030795663947,-0.0377322915210323,0.0709955085529835,-0.196405541872732,0.74021899234204,-0.084326041096395
501,501,0.0386862197559433,0.03846313626709,0.899323360565941,-9.87241122806989e-05,-0.033916621800491,0.0692015993253714,-0.345307518706721,0.726990481260783,-0.374107734778053
502,502,0.0389000923860991,0.0375554834994071,0.899741271186615,0.00514491386681204,-0.0317184016205884,0.0645328934585209,-0.523338959459448,0.780758559616487,-0.531791459464078
503,503,0.0391206379519881,0.0366204425418509,0.90013294058712,0.0114301119753858,-0.0314017895192652,0.0579663903023188,-0.590786040855901,0.836841012454074,-0.571600592423004
504,504,0.0393226301841491,0.035743068632055,0.900490139480699,0.0157188636261201,-0.0330644896528318,0.0504011807526516,-0.457276015758664,0.842090439904861,-0.513589862111842
505,505,0.0394805978935486,0.0350086157716116,0.900804543913761,0.0163839777866204,-0.0344752809129783,0.0432471006282661,-0.421186535064043,0.77465350727205,-0.403756054819453
506,506,0.0396221646946983,0.0344295088749681,0.901082541354971,0.0140543222887258,-0.0329053068493797,0.0364907047579732,-0.387624157574275,0.678855317666394,-0.418965841544809
507,507,0.0397640474051397,0.0339494282752017,0.901328828364072,0.0102226014983914,-0.0283266912503939,0.0296501383501655,-0.415273995402523,0.541419850329842,-0.46345303796593
508,508,0.0398642395181335,0.0335505173458353,0.901532756367376,0.0052487396320596,-0.0218318748897152,0.0231490176453441,-0.382047734406801,0.515996394128911,-0.583732806451017
509,509,0.0398807721868289,0.0332148180412828,0.901683881855242,-0.000255702789655796,-0.0150069887815909,0.017178745409308,-0.339551978682894,0.498516987011195,-0.674250758430259
510,510,0.0397717488012315,0.0329242777008477,0.90177190895439,-0.00589271327459835,-0.00970257382688273,0.0117764927191695,-0.315095252519614,0.534683318080095,-0.690406642921145
511,511,0.0394834358535269,0.032686779452962,0.90178734180746,-0.0115690406940165,-0.00625430147730454,0.00675561273182493,-0.22380196093273,0.550311556392909,-0.592567398929406
512,512,0.0390434615084416,0.0325145229571792,0.901738030737127,-0.0175469918514274,-0.00453499547939684,0.0016379763005763,-0.227165937298399,0.553236551231377,-0.475405751021028
513,513,0.0385321247101197,0.0323957280349627,0.901639855142292,-0.0238296293704064,-0.00422693191448127,-0.00328554934117705,-0.226613076723364,0.576972136026332,-0.423983724696394
514,514,0.0380298463480496,0.0323183564015075,0.901508743445806,-0.0301720390324941,-0.00424965567752179,-0.00791959047485989,-0.135038213262971,0.564236462098761,-0.31088525260644
515,515,0.037617140824454,0.032270044392762,0.901360617569565,-0.0349781616244265,-0.00302340291595463,-0.012088120119762,-0.240690712356764,0.476996374079513,-0.287477036867639
516,516,0.0373271727646443,0.0322323868409199,0.901192754365265,-0.0371820694772715,-0.00110760646202758,-0.0155874757606608,-0.335054236083694,0.382061604764093,-0.292667879588719
517,517,0.0371061246646996,0.0322124622203461,0.900997133759876,-0.0373129768892778,0.000201965714920826,-0.0185255216250079,-0.354027923549801,0.383906297055603,-0.206565421656571
518,518,0.0369041598154976,0.0322362144760175,0.900781045323291,-0.0362110237546202,0.00146274626161148,-0.0211534455183684,-0.418133122047489,0.3719354529304,-0.136187946663642
519,519,0.0366716200921635,0.0323302247406018,0.900550693322469,-0.0354065103549818,0.00313994128163411,-0.0233349162880316,-0.405944146601414,0.443310155647829,-0.0909433709803538
520,520,0.0363590124864537,0.0325218006932902,0.900311055453727,-0.0359581391955735,0.00568801303161814,-0.0247443422829847,-0.452686430001295,0.496166403742504,-0.0847089465824733
521,521,0.0359766085407512,0.0328118699231252,0.900052323395618,-0.0384724658073942,0.0103873970529931,-0.025251980172273,-0.407992909124192,0.498552145873035,-0.0651983015520233
522,522,0.0355575847113118,0.033182159097007,0.899771741770213,-0.0417018079006465,0.0168832053148553,-0.0250313229235509,-0.370979865426751,0.384040042078755,-0.0632472767653942
523,523,0.0350868091938483,0.0336319822070218,0.899483545789716,-0.0457500207083286,0.0237135797666985,-0.0246520104014367,-0.241608154180493,0.329599590502751,-0.0106885614092807
524,524,0.034549050808687,0.0341610301480997,0.899201416568365,-0.050582917754707,0.0306113638117477,-0.0242355167649677,-0.0992577568442861,0.268890534622311,0.083688128381751
525,525,0.0339289859886238,0.0347693573145801,0.898938482865172,-0.0553674269354335,0.0372453384017713,-0.0238105212493436,-0.0399306882682987,0.220989503253251,0.149517093257058
526,526,0.0332057498079761,0.0354685133824037,0.898703548139307,-0.0597751379115423,0.043837081245511,-0.0231594663635194,0.0495425268947858,0.23928547524122,0.153382153837729
527,527,0.032389332688152,0.0362594418435526,0.89848703489575,-0.0644814624214104,0.0507979254607019,-0.022276816897428,0.106402562916854,0.186593795681219,0.0686438503351279
528,528,0.0315107212107939,0.0371262590256503,0.898274200886074,-0.0689745218680619,0.0573794221775989,-0.0214102372959289,0.0697890225875595,0.227806852241218,-0.0618278974877966
529,529,0.0306010752537914,0.0380527503783234,0.898050409631272,-0.0733632255981036,0.0635535208379344,-0.0209402165736942,0.0112147899027935,0.191511917728677,-0.187758966800444
530,530,0.0296917490200311,0.0390223742339271,0.897801145046793,-0.0783496073376192,0.0700614239994469,-0.0214590518553458,-0.141879374448387,0.226048217342261,-0.0904229348464782
531,531,0.0287567205592353,0.0400588727933226,0.897497225347462,-0.0832423978053119,0.0772699455436016,-0.0233739559191389,0.0627369777322842,0.411798117816005,-0.478924794972523
532,532,0.0277752196910774,0.0411733696786376,0.897148068401112,-0.0864573046954575,0.0863204362883654,-0.0281248937080503,-0.0769295524295109,0.316698498206106,-0.385498065123768
533,533,0.0267867009205136,0.0423299113130919,0.896797021886939,-0.0884107625640304,0.0947569716709589,-0.0327231434759342,-0.0854157506599219,0.366381159102163,-0.291976553404663
534,534,0.0258307173080352,0.0434923019169482,0.896487214614364,-0.0883321201200963,0.101064121844933,-0.0354138559771307,-0.204017181619627,0.375188275833393,-0.291033887852131
535,535,0.0249468871465727,0.0446241210673331,0.896261629513592,-0.0861834015722997,0.10551474068189,-0.034150120172935,-0.274589005443172,0.33100788832797,-0.149389066086508
536,536,0.0241346717852045,0.0457706599293217,0.896137069496124,-0.0838304712603641,0.106698489653232,-0.0262854349556304,-0.350629102002952,0.390065181735855,0.243829900238179
537,537,0.0233680531093871,0.0469554296838245,0.896084642554119,-0.080379215600411,0.104994307556055,-0.0131568338246862,-0.262229298249108,0.498067298492215,0.70545671916398
538,538,0.0226483383229683,0.0481094309494479,0.89607866357759,-0.0766969661174368,0.10130860989778,0.00178050952060457,-0.046118251460766,0.319237682814322,1.23865996518631
539,539,0.0219766793445895,0.0491640004854968,0.896093436484117,-0.0701573965131959,0.0979664916272157,0.0149865598304625,0.261928630276029,0.0270076779809426,1.52331744217735
540,540,0.0213540846130118,0.0500507307182416,0.896103503611918,-0.0607904436601749,0.0922763439578343,0.0228720336487434,0.355746364282005,-0.0808096332526383,1.51884147845512
541,541,0.0207916763446402,0.0507318684643296,0.896137076982171,-0.0499758951030633,0.0819915722801682,0.0249901663771201,0.258583899908942,0.028725115673307,1.13432805767533
542,542,0.0202886638337461,0.0512528322803467,0.896212722266148,-0.0408484285272019,0.0697243509529432,0.023766883104787,0.31716384120942,-0.0600610725446558,0.536278401561996
543,543,0.0198280618680324,0.0516700054052213,0.896290765327921,-0.0326715818632995,0.0595862693310499,0.0199713965252359,0.262835672624776,-0.306010118385826,-0.220361226760633
544,544,0.0193928775869104,0.0520396556210125,0.896330998946229,-0.0263756942339397,0.0514388826803617,0.0145063846672522,0.0379664929951222,-0.384013612199377,-0.770422443683122
545,545,0.0189661037256679,0.0524179691696061,0.896292389631938,-0.0214362645377993,0.0451323199908108,0.00827104688047887,-0.297451552117543,-0.315911761701348,-1.09297454709558
546,546,0.0185392383824844,0.0527804774570195,0.896129785113179,-0.0193512053911802,0.0404793568957579,-0.00105876988603551,-0.375312294787784,-0.270630111330828,-1.15328213208014
547,547,0.0181230706830338,0.0530882691616912,0.895872719069068,-0.0199087220736348,0.0353372515545088,-0.0141281341574386,-0.284863365223553,-0.113341427123572,-0.934431831868978
548,548,0.0177296377951365,0.0533767405797348,0.895590556697008,-0.0228120645777722,0.0313235069346656,-0.0276966591466421,0.0238653170766157,-0.0461753209214858,-0.70824252711683
549,549,0.0173713077378296,0.0536826192866458,0.895351276086074,-0.0265581114248166,0.0282419422569753,-0.0386339639515075,0.380350217704054,0.0216626757578812,-0.500593270087046
550,550,0.0170608552605783,0.054043921513557,0.895221453955084,-0.0289699123400367,0.025842510958287,-0.0436108440675773,0.56254046642738,0.0939377338820428,-0.164182976951812
551,551,0.0168088474525342,0.0544910259458889,0.89520667326616,-0.0292442958542611,0.0237057012192407,-0.0408962330104571,0.658633206822904,0.0311152105589049,0.0208282749758561
552,552,0.0166067375445135,0.0550001706527416,0.895261771511839,-0.0294876138283102,0.0221804417731866,-0.0327569775981785,0.80019315486414,-0.169984094501084,0.327648747602349
553,553,0.0164390172666265,0.0555286621741489,0.895375890838853,-0.0286348639639235,0.0202229569950244,-0.0216664456183668,0.900506348452965,-0.342992454668787,0.657672623825067
554,554,0.0162903775488518,0.0560334127689731,0.895537711919041,-0.0275101017409861,0.0167138715072725,-0.0100387370635998,1.00521758743896,-0.402510983683095,0.927982890695614
555,555,0.0161457328660885,0.0564709704361676,0.895735510659914,-0.0260443344474945,0.0126760996812866,-0.000265634131627686,0.856914034473479,-0.54232357693923,1.13485794112793
556,556,0.0160138904606259,0.0568207994736998,0.895988867306163,-0.0239150046263969,0.00856407627918365,0.00891059390560942,0.771788904749569,-0.696704345427596,1.00148949029317
557,557,0.0159054097665163,0.057111836746271,0.896304344474382,-0.0200156565981357,0.00410740458822534,0.0189709985990662,0.592080714721415,-0.785554348969072,0.846044221606265
558,558,0.0158078357946069,0.0573749187922956,0.89665016191883,-0.0147767897958243,0.000624693997502549,0.0288458924787192,0.371882362063747,-0.874831745031468,0.629624681707779
559,559,0.0157084985629422,0.0576413019552767,0.896994081634929,-0.00920210050567143,-0.00169671389676982,0.0372054230212627,0.184046410046466,-0.898374040167965,0.334409775446357
560,560,0.0155945494578926,0.057942621857447,0.897303430530859,-0.00420763411986608,-0.00311717901465271,0.0427152026064306,0.100028277140131,-0.940117527016814,0.151463766671564
561,561,0.0154633519708241,0.0582935807707309,0.897575572525243,-0.000407032786315691,-0.00461988885586363,0.0441069746986104,0.00981262162395143,-0.769596772904456,-0.120890174938197
562,562,0.0153234258942447,0.0586741011513209,0.897830800974589,0.0014621762938417,-0.00552674302576489,0.0422435844519901,0.0584089476085677,-0.777437879022926,-0.260062380179865
563,563,0.0151787337032673,0.0590632943195837,0.898070321460354,0.00155763708736954,-0.00667558139995694,0.0381794231044918,0.0631600902153882,-0.677962739714532,-0.295010188551925
564,564,0.0150333980264739,0.0594395110730223,0.898295045818442,0.000346766288788473,-0.00646921362131912,0.0333815120036881,0.0417448198381333,-0.727844142745374,-0.294085645920441
565,565,0.014891622041887,0.0597805107657883,0.89850572740428,-0.00149731839148186,-0.00574486639590292,0.029259090001832,0.0437102916172203,-0.760437023213127,-0.249700178877716
566,566,0.0147487079855604,0.0601266894572383,0.898709620478724,-0.00304503584003166,-0.00403515087494929,0.0261873343112715,0.0113319950777702,-0.725470256253764,-0.214816155215244
567,567,0.0146020835696923,0.060492067867508,0.898905136763763,-0.00476240681823029,-0.00143702116502633,0.0235691358455258,-0.0687677211473478,-0.594299879713639,-0.138455687494812
568,568,0.0144590233405509,0.0608146544094903,0.89907991970631,-0.00631920793943318,0.00119783487894596,0.0211587070896419,-0.104628045440879,-0.475957981293703,-0.146164001202623
569,569,0.0143266935696865,0.0610325611935269,0.899221759769662,-0.00748564800094594,0.00238100942415688,0.0188063821665298,-0.248673331470418,-0.394381256025484,-0.249852707943252
570,570,0.0142122114720119,0.0610840046802308,0.899318560482794,-0.00918503040671888,0.000712766293604671,0.016119303300128,-0.24321935536094,-0.335972934755624,-0.358305987375196
571,571,0.0141384574838443,0.0609293064120844,0.899365771181698,-0.0115041448599243,-0.00427728792415414,0.0127952647950231,-0.202066637415691,-0.398223850667803,-0.434671858099613
572,572,0.014100394197386,0.0606096361510229,0.899372152250769,-0.0142980042642655,-0.0128497063862919,0.00879626872176542,-0.0999700511298696,-0.397725993983408,-0.503341997943211
573,573,0.0140633095643465,0.0601846839356246,0.899345750973189,-0.0178444917553183,-0.0230135528582132,0.00443237446802333,-0.0385463122628658,-0.333810284797072,-0.408521346309439
574,574,0.013992546532272,0.0597142988882099,0.89929463776679,-0.0211158897662299,-0.0337333999707603,0.000301431533356125,0.0107936003169529,-0.276203331119308,-0.344893695426026
575,575,0.0138534653833827,0.0592584752553294,0.899226853751107,-0.0236624150034023,-0.0428993163439344,-0.00320503540471423,0.0468216333271355,-0.272655431472813,-0.279726368123041
576,576,0.0136408423626292,0.0588288141060761,0.89913700931011,-0.0253472033798511,-0.0489081961853964,-0.00581259774529215,0.0445013637944299,-0.353712187835889,-0.282472757142457
577,577,0.0133772654059215,0.0583866523734533,0.899021964205521,-0.026886884312093,-0.0521854764573402,-0.00787159654708257,0.0256935261709935,-0.475388196267127,-0.253668997169355
578,578,0.013070052577597,0.0579160537652365,0.898892688825985,-0.0284914959338006,-0.0547473333232074,-0.00947442649345978,0.00531166129311869,-0.457868285376872,-0.122714813271083
579,579,0.0127269936132271,0.0574000388350184,0.898759425690269,-0.0297177872045983,-0.0569927363620113,-0.0107877401501628,-0.024629564991793,-0.474971629602784,-0.0688831679626644
580,580,0.0123563605059131,0.0568204600279475,0.898631554257819,-0.0305983747046899,-0.0602706688107997,-0.0119181060732505,-0.114722511033975,-0.518372072074665,-0.0444143035248323
581,581,0.0119233282705322,0.0562079291179677,0.898511414764045,-0.0313831863001541,-0.0647298745121067,-0.0129434115359702,-0.189631432920502,-0.583338960345426,-0.0214865439219668
582,582,0.011422915631649,0.0555731243935469,0.898394033302783,-0.0324898907959906,-0.0693842004785528,-0.0137368872123048,-0.225170299920684,-0.666078930533678,-0.0332133920055259
583,583,0.0109083310003034,0.0548674397197641,0.898276598349533,-0.0332757036701458,-0.073905637281249,-0.0144426764621753,-0.255355673810214,-0.704529989461039,-0.0639942867685942
584,584,0.0104326089001429,0.054042745003976,0.898155520610248,-0.0339513590823753,-0.0794996595155158,-0.01533969478318,-0.227231646626373,-0.71338291710223,-0.0972734048497885
585,585,0.0100486075170153,0.0530514332890182,0.898026420553513,-0.0344465889449605,-0.0860180598281797,-0.0164070709560087,-0.174507071796627,-0.569834563595785,-0.143425597261627
586,586,0.00976211156777945,0.0518644045682683,0.897894852597221,-0.0343291525093255,-0.0942463145229665,-0.0178277682185187,-0.061666160803776,-0.512138993177177,-0.087308410220891
587,587,0.00953792442093446,0.0505126878179635,0.897763495471867,-0.0330741792473795,-0.104389356469339,-0.0195253093792734,0.0394520277559902,-0.538842497418201,-0.0962485208521707
588,588,0.0093672760149484,0.0490399064143262,0.897622671457494,-0.0301498569271419,-0.116778960485483,-0.0213470997968113,0.0376085694643072,-0.443560983038023,-0.203026168500877
589,589,0.00924141215825583,0.0474905485769369,0.897462142526155,-0.0257991595940987,-0.129732506595981,-0.0232188340383495,-0.0503418477198646,-0.33501328812281,-0.320763072862851
590,590,0.00915160889427876,0.0459098950133474,0.897271169805108,-0.0222112185776866,-0.14230409641331,-0.0251787662822497,-0.0369927976566393,-0.289997783408658,-0.387623946554753
591,591,0.00909784839451786,0.0442745649785311,0.897026386558883,-0.0199933342016989,-0.152596055072278,-0.0271760768275571,-0.0943959103647112,-0.434169732303279,-0.364780981167481
592,592,0.00908596418718921,0.0425557066559619,0.89673346267836,-0.0184690250593293,-0.160964626394351,-0.0289150387854081,-0.0969211184091368,-0.409453178578958,-0.204698643230944
593,593,0.00911607481517634,0.0407907669499702,0.896425242587214,-0.0151536760894096,-0.166953148202052,-0.0303272669700011,-0.164189613174959,-0.298942007615084,-0.189249672655126
594,594,0.00918837633548042,0.0390170209599856,0.896135008983544,-0.0107589099862349,-0.170476161190558,-0.0310880420784109,-0.219687423442389,-0.282270412361075,-0.0802222372752111
595,595,0.00930313563145102,0.0372714947583331,0.895896565222811,-0.00795700284326536,-0.171574473699979,-0.0298822709166137,-0.0679121520391539,-0.214634983747723,0.194914651699656
596,596,0.00949861224772273,0.0354952906800112,0.895724280045541,-0.00374647099316037,-0.171830827412214,-0.025106166606689,0.115280776542407,-0.0980159559592585,0.465742180271252
597,597,0.00977522295541663,0.033664277539525,0.895596130667485,0.00149796236539758,-0.173854085752663,-0.0170133730109675,0.145706434374545,0.119116894520194,0.605118054471228
598,598,0.0100761749516035,0.031866651937721,0.895491926792095,0.00824207203687198,-0.17633376386401,-0.0074757975418028,0.206414831055361,0.166100048214128,0.609135037449211
599,599,0.0103440996228131,0.0301897664920966,0.895391731139432,0.0148576657661639,-0.177253842066236,0.000213889418177743,0.261808664879803,0.242648359372837,0.559138375429509
600,600,0.0105210508177764,0.0287203609969152,0.895276084516538,0.0198321443250536,-0.174699774665634,0.00449814545088238,0.232231516002291,0.134590362302292,0.489043653685023
601,601,0.0105953460725392,0.0275112776936084,0.895127024120088,0.0227729862021032,-0.167194850420615,0.00402087993274479,0.129204224475866,0.0823010576306534,0.25095948867345
602,602,0.0106047997781137,0.0265024807222726,0.894961592725403,0.0228466635707801,-0.155536793330748,0.000301349162737918,0.152368212744283,0.0833823209181495,-0.00545087692456028
603,603,0.0105656118680366,0.025611939171617,0.894812201646172,0.021136350583181,-0.139969701979472,-0.00482805519366775,0.0164415783499895,-0.0892763071400788,-0.280756326897998
604,604,0.0104942689252251,0.0247589532084351,0.894709141662386,0.0178908468734632,-0.123695102786209,-0.00961370123462566,-0.0955439063593236,-0.23656629626817,-0.478115992499245
605,605,0.0104074287707512,0.0238641978876152,0.894680243286157,0.0146919618445161,-0.108859901547741,-0.0122476725783732,-0.0401205639129743,-0.202912235512576,-0.542376103640812
606,606,0.0102625058748267,0.0229277539655051,0.894726112032117,0.012917906531473,-0.0953610683649639,-0.0131374578128167,-0.105765253549506,-0.139857022558167,-0.396628036407002
607,607,0.0100473885635588,0.0220043839609884,0.894828868775088,0.0110890599666031,-0.0813310792055682,-0.0135551168407188,0.00748597040381454,-0.103214498304973,-0.0787917862854917
608,608,0.00982473600193986,0.0210974066532191,0.894985965720752,0.00923310428835223,-0.0682807700641161,-0.0129008046083162,0.0457628329387012,0.136446087024259,0.19205337701048
609,609,0.00965797522491211,0.0202094520463991,0.895193658310835,0.00529140417487333,-0.0560852439799032,-0.0107188195835772,0.282614320133461,0.350407863692335,0.58821072907921
610,610,0.00961154902314464,0.0193423358897687,0.895447051572555,0.000694516276455797,-0.0460473666949205,-0.00564134886616092,0.202547234278213,0.597845702978156,0.917466602411454
611,611,0.00974197738496609,0.0184844058439656,0.895761170727952,-0.00113381862691709,-0.037709533772689,0.00438972817900835,0.155025350315619,0.93483288803015,0.988931363640824
612,612,0.0100067688799985,0.0176354997952716,0.89613756729031,-0.00066269742347748,-0.0311689011533938,0.0184157214277067,0.171679186850987,1.10632640290773,1.06847234743018
613,613,0.0103227315196104,0.0168132335674131,0.896550208904701,0.000614948151883413,-0.025655008551093,0.0335087820600382,0.145237898245153,1.10971232495647,1.0286059349164
614,614,0.0106067542407659,0.0160341291627299,0.896972762540577,0.000753526125036328,-0.0212931950854217,0.0470141082027109,0.128904606838077,1.01970039282922,0.900149250727329
615,615,0.0107757337021099,0.0153137555211221,0.897378598351028,-0.000447251920503053,-0.0180984652121104,0.0559436394022712,0.102802645112064,0.843428271964615,0.663443749788007
616,616,0.0108145694318702,0.014683118697968,0.897778903766377,-0.00347053071317194,-0.0167011536317158,0.0598659162577968,0.0448708957945132,0.817065188153496,0.324534068198989
617,617,0.0107793940976979,0.0141300734107364,0.898189760722612,-0.00901070252409347,-0.0153107377536469,0.0605865723358385,0.145286216707918,0.907589022023921,0.0646137643724721
618,618,0.0106937042268398,0.0136052073426937,0.898591327310269,-0.015226183260336,-0.0138678369871103,0.0588042206301101,0.15900475176563,0.966187033129742,-0.214566177514135
619,619,0.0105808530822417,0.0130596150260464,0.898963316104302,-0.0198911155719065,-0.0122018404889313,0.055588477697943,-0.0117033511275816,0.985010286550641,-0.506242815465603
620,620,0.010464146667018,0.0124448570072875,0.899285158452155,-0.0216911842989314,-0.0102286290001882,0.0515701953093257,-0.251022847310298,0.967436412626549,-0.706269602562386
621,621,0.0103375361098248,0.0116973976246469,0.899553706393723,-0.0205620057859349,-0.0100431115006099,0.0457607601608942,-0.427195540453816,0.891560376388399,-0.861980622372992
622,622,0.0101858056883474,0.0108493243947264,0.899781082571573,-0.0180175444153812,-0.0130369492436023,0.037467884200967,-0.47252901312317,0.794985033843448,-0.822470089900525
623,623,0.0100184139331838,0.0099962486819088,0.899969550538538,-0.0153299579137285,-0.0172482671797182,0.0280146984727213,-0.488741971847759,0.704890275757829,-0.714842281107427
624,624,0.00984461484846568,0.00923412403846482,0.900121217018765,-0.0131967291785272,-0.0210937618151846,0.0189171746509514,-0.509774946384441,0.538532038090867,-0.587785407031288
625,625,0.00967341839143775,0.00865912356661965,0.900238042284007,-0.0120611117097237,-0.0225565060671854,0.0116015732292997,-0.434323743401114,0.46452274854908,-0.455983187028989
626,626,0.00951238605045226,0.00828802572055124,0.9003198853439,-0.0122663996520307,-0.0203377745619864,0.00675033915848886,-0.308050832351321,0.378194259433363,-0.320712016424036
627,627,0.00935535562574328,0.00805727359578459,0.900364966696725,-0.0128563587247191,-0.0154074151190626,0.00361964534622516,-0.221760603948707,0.364169352061288,-0.249530547698292
628,628,0.00919058520881319,0.00794255152313598,0.900372930094881,-0.0141899985901679,-0.00876014213479013,0.00145814892447666,0.00289804076955538,0.414386127865315,-0.194568498496421
629,629,0.00900634410454472,0.00791942985404721,0.900343624340608,-0.0161944819606333,-0.00156631801472457,-0.000575339145624319,0.0910117862063655,0.427317596297782,-0.219200052541045
630,630,0.00879093030383677,0.00796330511002119,0.90027709817966,-0.018151553649505,0.00418666513754878,-0.00320758974191363,0.100459914172466,0.486805654346581,-0.294555549248909
631,631,0.00853250416533652,0.00809912311077587,0.900165078966867,-0.0208659075213023,0.00868427611242363,-0.00646488555992692,0.157524411646647,0.485954314663697,-0.263424978848852
632,632,0.00823865031658429,0.00834283920542048,0.900009193951279,-0.0232933286916563,0.012263609386273,-0.00960214266204246,0.13180369949319,0.590018827197041,-0.251958351496738
633,633,0.00792686567565877,0.00865620433723552,0.899824324617607,-0.0246597606179367,0.0160948506090073,-0.0122083384482323,-0.0159591873522644,0.605502931725206,-0.253505264506405
634,634,0.00761467730616235,0.00900107635831787,0.899624934926594,-0.0252431295713632,0.0198933789907958,-0.0142201332600803,-0.148078113169224,0.659041303842206,-0.191705952880839
635,635,0.00731962904102501,0.00933950648518499,0.899424890388291,-0.0252924893383785,0.0236174295626577,-0.0154836964689413,-0.279463649192717,0.621154776611187,-0.0741044419546429
636,636,0.00705621641008103,0.00963392376326919,0.899221829614989,-0.0253931358143915,0.0260120927850318,-0.0158128603029117,-0.33915688138187,0.539848386168297,0.0502410304712789
637,637,0.00681255630254664,0.00990851561574003,0.899008455703373,-0.0255642503592824,0.0271638284145861,-0.0152940627238168,-0.39945770377546,0.465993440007591,0.117194974864866
638,638,0.00656670896710598,0.0102187728709636,0.898789983926828,-0.0259735931408847,0.0282458125380272,-0.0142547591515061,-0.374013974703257,0.355562783799736,0.181494959201214
639,639,0.00629685434376756,0.0106211485946221,0.898570517088946,-0.0266183455448016,0.0298289907800898,-0.0131356734873234,-0.342479301291224,0.329976655659589,0.214997214833743
640,640,0.005981246234694,0.011173061351408,0.898352994580752,-0.0274500735788822,0.0326694942788747,-0.012432404606144,-0.316007906374739,0.380807868235591,0.181750535398975
641,641,0.0056127012135546,0.0118865375702941,0.898154708701955,-0.0292250065542846,0.0384921340630778,-0.0122401057538206,-0.30534036632651,0.394032106328309,0.156063396508293
642,642,0.00520559481826311,0.0127243877697079,0.897972949340431,-0.0320483004622574,0.0469168929515713,-0.0123069600471807,-0.251222317673146,0.46433904557956,0.100959849420063
643,643,0.00477053705971514,0.0136707098603287,0.897779965407477,-0.0360515708134652,0.057600491635533,-0.0126600744607198,-0.145152082520509,0.407880225689061,0.0154778398434182
644,644,0.00431821243674498,0.0147094430783077,0.897548181602033,-0.0399774171936819,0.0683794044355347,-0.0135040673328807,-0.125023213446493,0.526738263381125,-0.090923161973596
645,645,0.0038594120638057,0.0158243852713261,0.897250191992119,-0.0420700637451245,0.0786816507549476,-0.0147302910469584,-0.215128416773268,0.553650893931744,-0.249026512623483
646,646,0.00339206386625097,0.0170706775556511,0.896822173179394,-0.0422220897330339,0.0899636430153457,-0.0167455847447711,-0.299718557348248,0.533299879512699,-0.291909975631933
647,647,0.00290872718673458,0.0184600412951505,0.896282207530802,-0.0421000975605461,0.103865366289007,-0.0193489039985122,-0.329371061085731,0.441289284465502,-0.349166528787236
648,648,0.00241253191822399,0.019910394578861,0.895725834436229,-0.0415582598285717,0.117453700380248,-0.0219625729844214,-0.286345423797705,0.309813579053206,-0.342937125984565
649,649,0.00190704196931453,0.0213388223416315,0.895248542516275,-0.0429520133945317,0.126861275694127,-0.0240468957724954,-0.149838743860282,0.257302740112003,-0.269053628526176
650,650,0.00139616677635249,0.0226616231721789,0.894945808532429,-0.0467794453833948,0.133011655506747,-0.0244595426099776,-0.028601295335718,0.278410078402565,-0.177522173788258
651,651,0.000883349293843201,0.0238697268799415,0.894853804575126,-0.0528299211642179,0.135084265072897,-0.0219427510762295,-0.104284542908022,0.23933356022686,-0.116043890585102
652,652,0.000366434784925835,0.0250174516712942,0.89490922252713,-0.0599904322518586,0.134666368181385,-0.0171742711521909,-0.0873367720181473,0.278933575638912,-0.166214138004793
653,653,-0.000158943905189203,0.0261160799360631,0.895057705187065,-0.0661594895076897,0.135049599314997,-0.0112228358572218,-0.0479708532067262,0.277367796491249,0.0884573005890626
654,654,-0.000697082715322514,0.0271776168551791,0.89524401355888,-0.0679902900329693,0.135997736959896,-0.00490332397079054,-0.113834671053812,0.225667187421933,0.659451584326713
655,655,-0.00125216664129043,0.0282147796451948,0.895412213032102,-0.0665767111296539,0.134443445061395,0.00137050260275616,0.0547116183831971,0.0176575309789556,1.121968042498
656,656,-0.00183952971571354,0.0292194666463352,0.895588850902897,-0.0612369838072612,0.125962625934746,0.00842799406872847,0.309277841107962,0.106437621188104,1.37648368188345
657,657,-0.00245597244384539,0.0301838160786382,0.895810198472224,-0.0524092887848467,0.113153244144587,0.0170704742642441,0.103993382182378,0.0309360624720073,1.18920179722057
658,658,-0.00307802393956555,0.0311211457954161,0.896035184653539,-0.0433287418109947,0.101704758865658,0.0251472824782498,0.142288706580353,-0.107447028684558,0.809210449552997
659,659,-0.00368247998153987,0.0320444216136243,0.896223254879519,-0.0349162040031469,0.0946585598027362,0.030722453967594,0.0325543781605132,-0.287728705410226,0.198149418198806
660,660,-0.00424638011104478,0.0329662078602055,0.89633422174029,-0.0287430034641608,0.0896508960111811,0.0318816779937994,-0.132255515261684,-0.203274984666235,-0.303162765993389
661,661,-0.00478435806562356,0.0338984589849742,0.896343570006233,-0.0270342136944884,0.0869004187829283,0.026837184218938,-0.156641873369224,-0.235604181001657,-0.595540176658003
662,662,-0.00531211757697362,0.0348323847163954,0.896279969002041,-0.0296704820356941,0.0862148083524616,0.0169871254278217,-0.00629953780022241,-0.308242681769096,-0.727744048949242
663,663,-0.00580839508780237,0.0357493660660622,0.896182709791911,-0.0342261188226689,0.0863727758659728,0.00517484487917257,0.244551096484874,-0.491714032337592,-0.651644688208171
664,664,-0.00625180156460467,0.0366311464484785,0.896090184018538,-0.0390357588355557,0.0849673994805847,-0.00579516902020708,0.260662056881025,-0.497846131110582,-0.533170458221666
665,665,-0.00662081042477981,0.0374598457566958,0.896039798097933,-0.0428040652334991,0.0818381832765031,-0.0129550576985754,0.271627893350213,-0.366099859240666,-0.418922655295379
666,666,-0.00688848532776183,0.038204188827398,0.896018078428795,-0.0440027693630291,0.078800018364424,-0.0163392647320722,0.277887344754608,-0.236107480984212,-0.285002065371357
667,667,-0.00706935537809178,0.0388765640103357,0.896000110261614,-0.0430830353119133,0.076233890557526,-0.0178654775095806,0.249096919499714,-0.139665400886322,-0.0393678086527897
