,Frame,CoM pos x,CoM pos y,CoM pos z,CoM vel x,CoM vel y,CoM vel z,CoM acc x,CoM acc y,CoM acc z
0,0,0.168781681099368,-0.0527470761930431,0.895326253536991,0.00697863493340554,0.00357131929749859,-0.0242492964463152,0.00180034766703753,-0.0141586796594239,0.0427101084571725
1,1,0.169009133731027,-0.0525553436812787,0.895402969167971,0.00670130093778083,0.00260643796403679,-0.0239782978384204,-0.0788432918696324,-0.0151420016869885,0.000849783518717598
2,2,0.169237667962507,-0.0523579079924026,0.895476206643381,0.00638748176931843,0.0018781700447374,-0.0237140806540281,-0.0653947325105945,-0.0549712481343874,0.0400002806552431
3,3,0.169465651444818,-0.0521633347961553,0.895551187212654,0.0059149907058983,0.00121733171177587,-0.0234367752879445,-0.0573015620133917,-0.047723856343564,0.042935978609437
4,4,0.169691453662838,-0.0519801904284942,0.895633133657837,0.00569869278948572,0.000625017723011668,-0.0231276322081169,-0.0933581010777721,-0.0489344312306002,0.0274635340603634
5,5,0.169913446095832,-0.0518170418786048,0.895727270236301,0.00582442535624094,0.00037683570764256,-0.0228410010024225,-0.0777463047837711,-0.0461594058275534,0.0539146918285658
6,6,0.170135197138302,-0.0516780273438168,0.895843582479159,0.00624725240063592,8.8803852932428e-05,-0.0225271616064647,-0.0531490037728033,-0.0168900515256259,0.0242809467162584
7,7,0.170357798351689,-0.0515574377229436,0.895978591512623,0.00702041415581408,-0.000172734353509479,-0.0221968540646883,-0.0718621138256155,0.0105681287045093,0.0383682284263545
8,8,0.170575905888267,-0.0514490682612491,0.896117324499234,0.00770534754791964,-0.000190848970327009,-0.0218604832367769,0.0032731436196792,-0.0368957234196219,0.0360519105939747
9,9,0.170784172949634,-0.0513467123788705,0.896244806437769,0.00784803769237552,0.000416961391641078,-0.0215464417808192,0.0156182962097651,-0.0553735450090041,0.0148124223912391
10,10,0.17097724969269,-0.0512441617362484,0.89634606025345,0.00820482413642562,0.000950346806297486,-0.0213366205636372,-0.0336020013281877,0.00433496352819702,0.0196220188529815
11,11,0.171153558785945,-0.0511450505136659,0.896416376734402,0.00838244488246575,0.0011123179964184,-0.0212319696917601,-0.0777591580236083,0.0139331111705987,0.00539524633861726
12,12,0.171316666734326,-0.0510535166102761,0.896465740169042,0.00833347228052944,0.00121900959228136,-0.0212308309128088,-0.0764861787328523,0.0257394091555364,-0.0010177755049014
13,13,0.17146893694713,-0.0509641043001288,0.896501210790153,0.00819422353550123,0.00149399624224061,-0.0212578434954608,-0.108641912724656,0.00169127927973851,-0.0101980869546532
14,14,0.171612732103861,-0.0508713557535415,0.896529846895597,0.00796311626576041,0.00182545095311702,-0.0213030475925575,-0.0847235906287555,-0.0049086088985467,-0.0126268569794266
15,15,0.171750414143082,-0.0507698116326107,0.896558705303407,0.00779994493275484,0.00237772899038283,-0.021321965509931,-0.0847926722398602,-0.0298993875819857,-0.00239400555634187
16,16,0.171882413299346,-0.0506579832826364,0.896587174448509,0.00742581844504334,0.00313661121351023,-0.021302601412819,-0.100845809258846,0.00726810735492342,0.0054302577988865
17,17,0.172007153215884,-0.0505395058160158,0.896610545882173,0.00697580483308073,0.00393212727315556,-0.0212865904305842,-0.0965335231088191,0.0108414397601973,-0.0228399968635014
18,18,0.172123985759013,-0.050416606412706,0.896629731550434,0.00605642981323983,0.00467226430075587,-0.0212348650472382,-0.0744101820494078,0.055226448290423,0.00207482824764213
19,19,0.172232263336503,-0.0502915134187184,0.89664564442303,0.00497047615546716,0.00585820992367445,-0.0211355885458117,-0.0515295050206208,0.00309029739503716,-0.00492663780464944
20,20,0.172331338814157,-0.0501664556092133,0.896659198054427,0.00402451956219137,0.00660944940266809,-0.0209567537105533,-0.0438446761649048,0.0478189246266095,-0.0291114711981856
21,21,0.172419784185572,-0.0500424018592864,0.896669626800774,0.00336132878954968,0.00718277412792039,-0.0206901836819257,-0.0575972123506616,0.0553707406202263,-0.0318618112461767
22,22,0.17249803030591,-0.0499178665536108,0.89667632224295,0.0027612611445434,0.00755680145278912,-0.020344366914538,-0.0451412056230634,0.0383326820275824,0.0180950934531085
23,23,0.172568218896382,-0.0497913968751735,0.896680433831826,0.00229010890124418,0.00794215403277763,-0.019945256511107,-0.0836900937596501,0.0482423426618179,0.0235344371226429
24,24,0.172632492143897,-0.0496615401527076,0.896683110659766,0.00199506814885136,0.00828212626991768,-0.0195304231540182,-0.0894778903651352,0.0283759362851501,0.0269647052949792
25,25,0.172692992720249,-0.0495268439136626,0.896685501432949,0.00161495311180424,0.00882864911051732,-0.019136042987222,-0.0661096362467103,-0.0335180404893528,0.0273645581964842
26,26,0.172749109972991,-0.0493880411992476,0.896687698323727,0.00119446136729866,0.00894732489243485,-0.0187840336135645,-0.0082074102809116,0.0173425411067235,0.0228348568130279
27,27,0.172799416012242,-0.0492461003320194,0.896688935456895,0.0009531671873858,0.0091733245799634,-0.0184105899754882,-0.0808385516438593,0.011618302202211,0.0114313595538807
28,28,0.172844828055564,-0.0490999220410293,0.896689074027265,0.000459640620100884,0.00962056577245929,-0.018015614053982,-0.0354893775408396,0.00414177836051416,0.0184576866104937
29,29,0.172886263294018,-0.0489484073214383,0.896687975043565,0.000389725935333403,0.0101655495631421,-0.017647672158216,-0.076206706497073,-0.00302182459980459,0.0159234937730126
30,30,0.172924638891473,-0.0487904575321448,0.896685499338334,2.64729810633463e-05,0.0105904849593427,-0.0172716233966874,-0.0414900607906733,-0.0295866357978987,0.0115554425629786
31,31,0.172958605018559,-0.0486243955689089,0.896681278343183,-0.000215329459068269,0.0112842104975308,-0.0169281667501339,-0.0833498525868001,-0.0173260896858197,0.0315901267229133
32,32,0.172987551008087,-0.0484509548728126,0.896675404484138,-0.000619901889589671,0.0117547869435391,-0.0165721091461479,-0.0816195338428021,-0.0136970039713674,0.0271059866890706
33,33,0.173013502507804,-0.0482726526359888,0.896668429907628,-0.00136399288279681,0.0122535291243712,-0.0161882711930349,-0.0364030319317423,-0.0264565921178159,0.00442201803894931
34,34,0.173038484800859,-0.0480920055137504,0.896660906604836,-0.00212811237385123,0.0125314600761621,-0.0158010459539998,-0.0563130344623691,-0.0360352767179351,0.0223362409528308
35,35,0.173064522630194,-0.0479115295298086,0.896653386585486,-0.00262377178648286,0.0124298673485833,-0.0154342051697626,-0.0453195777401997,-0.0167903568544948,0.0202037407218037
36,36,0.173094647172907,-0.0477300462819805,0.896645953830715,-0.00284335232864484,0.0123666079207497,-0.0150607907604341,-0.107457458316684,-0.0304021854648172,0.0347450915057922
37,37,0.173127507597907,-0.0475458784909494,0.896638240840768,-0.00305609117892124,0.012302737510907,-0.0146958708377939,-0.0745691654188773,-0.0437662047218579,0.0388806429288396
38,38,0.17315855499036,-0.0473607928141683,0.89663012247237,-0.00310867933245543,0.012356407108579,-0.0143398659452295,-0.07023193547965,-0.0213854112996608,0.0215686186806884
39,39,0.173183240524763,-0.0471765552679665,0.896621473147349,-0.00331351967872297,0.0122881147422047,-0.0139842803194933,-0.0870294287281011,-0.027878877421634,0.0114030516155087
40,40,0.1731970156078,-0.0469949315431883,0.896612166863967,-0.00355675978215431,0.0120112190826813,-0.0136731184608252,-0.0548645218254808,-0.0179540236041218,0.00486337202293596
41,41,0.173198661276028,-0.0468173793061529,0.896602279171839,-0.00372349514660239,0.0121419390277815,-0.0133890667270174,-0.0375513556150877,0.0083035193538161,-0.00797638275525834
42,42,0.173191207715924,-0.046642720730278,0.896591895393861,-0.00376041868764538,0.0118277611500759,-0.0131727271842886,-0.0353030493737892,0.0155015940347536,0.0255521884479488
43,43,0.17317648150227,-0.0464687687815165,0.896580903533001,-0.00408813871280896,0.0117112109114691,-0.0129455977460837,-0.0322882653125615,-0.0145002393438004,0.00182564521421544
44,44,0.173156310990403,-0.0462933366214979,0.896569190670457,-0.00433920481223542,0.0117171872256535,-0.012697932470549,-0.0402569907936372,-0.0359696881656301,-0.00020655922596007
45,45,0.173132526328405,-0.0461142371931338,0.896556642785089,-0.00475020812509649,0.0116934336863327,-0.0124140006961995,-0.0503875930188914,-0.0268216939086726,0.0127097264679184
46,46,0.173104385199427,-0.0459323259673554,0.896543821060268,-0.00538534928293504,0.0117690887155242,-0.0121029993102971,-0.0391261688572557,-0.0627823151444713,0.0299719279008924
47,47,0.173070669834354,-0.0457490614220274,0.89653080155823,-0.00608466795365639,0.011737909422874,-0.011771079262213,-0.0490027616634268,-0.0540994084285501,0.00709720364848549
48,48,0.173032497994814,-0.0455631603075692,0.896516741408406,-0.00685348058080845,0.0117321485070772,-0.0114254860401519,-0.0523864211660845,-0.0657382017606764,0.0111959219983007
49,49,0.172990986874207,-0.0453733387893054,0.896500797260897,-0.00734002984570735,0.0118808201726787,-0.0110809600816468,-0.0557524815142374,-0.0795331913539622,0.00577879335839722
50,50,0.172947253054111,-0.0451783125160234,0.89648212532885,-0.00776520116217839,0.0119929640369444,-0.0107157762261104,-0.0684387115620598,-0.0339634507496241,0.0248257981794229
51,51,0.172898950365693,-0.0449794874856109,0.896466620769464,-0.00770371554772955,0.0124852376863476,-0.0103723846526232,-0.0626720028558765,-0.0735645447672012,-0.00246047443456466
52,52,0.172845335351846,-0.0447777179654697,0.896454845761275,-0.0076077289642905,0.0134120118081343,-0.00999998193346788,-0.0515251014828123,-0.0304675867788737,0.0274887075465903
53,53,0.172789927535758,-0.044570892254364,0.896437956180991,-0.00750813657372341,0.014330408053273,-0.00961860247442106,-0.0389877694814656,-0.0304762678225974,0.0426240084424999
54,54,0.172736245637009,-0.0443568996107041,0.896407106937167,-0.007470213723795,0.0152800273966628,-0.00923037486612586,-0.032432485396159,-0.0269688139828798,0.0241885392384
55,55,0.172687807798,-0.0441336304710059,0.896353451850407,-0.00759201363876619,0.0160118953401875,-0.00884529330686484,0.00237493557107136,0.0110811755550643,0.0146320305677318
56,56,0.172641614742842,-0.0438978108853858,0.896263211527633,-0.00777818794721713,0.0166962305822265,-0.00847877509241345,-0.00157378535587108,-0.0185674336455826,0.018075072115376
57,57,0.172595321085662,-0.0436508473323041,0.896142280141033,-0.00730325268067844,0.0173662713981424,-0.00814569031561731,-0.0517580620437425,-0.00971834285407171,0.022831237095424
58,58,0.172553424804142,-0.0433976528248861,0.896011321733113,-0.00711812716037006,0.0177251115342613,-0.0078103532430593,-0.0434337535259511,-0.0305472466157705,0.0586021851161905
59,59,0.172520422649695,-0.043143141657428,0.895891001646272,-0.00691421154189433,0.0183486011898989,-0.00745206871825397,-0.0171724397446126,-0.0167262389932779,0.0322117754139982
60,60,0.172500810087756,-0.0428922291632902,0.895801986880324,-0.00654544802222173,0.0186564566459631,-0.00708532058038353,-0.0361602719789886,-0.0627482517521204,0.0140746398287832
61,61,0.172499614007357,-0.0426429941133615,0.89575025424798,-0.00582018316597245,0.0191430337047655,-0.00667593145805838,-0.0317856522032182,-0.0609250050695983,0.0467133894528366
62,62,0.172513834402043,-0.0423921648073644,0.895722027307189,-0.00475435471613954,0.0196327148230283,-0.00623160399374508,-0.0437471264460194,-0.0539610076325861,0.0434882683845339
63,63,0.172535926773297,-0.0421426287920862,0.895708344071929,-0.00369692442485715,0.0202407708965145,-0.00578758015224412,-0.0478960092839926,-0.0658787401728624,0.0498920460674143
64,64,0.172558348440672,-0.0418972694406443,0.895700241074649,-0.00277677503319302,0.0204206819769613,-0.00543305626698133,-0.0273571020913411,-0.0439346496740463,0.0341661094938953
65,65,0.172573558124175,-0.0416589662800758,0.895688753153324,-0.0023157826257103,0.0205769952261721,-0.00525062742486135,-0.00805383248979386,-0.0580672621344689,0.0236750788817066
66,66,0.172576781280686,-0.0414280097521129,0.895674230059308,-0.00210803884666079,0.0198103637622139,-0.00536110641098777,-0.0413812360705578,0.0146215359763134,-0.012877784140379
67,67,0.172573045985393,-0.041202473869354,0.895662649072906,-0.00241555781126286,0.0192773005748473,-0.00571351816515173,-0.00357703240151413,-0.0429388659924303,-0.0288762099830022
68,68,0.172569514868465,-0.0409819147853526,0.895653484144591,-0.00296199129621174,0.0180143495713052,-0.00611517846562638,0.00432457535125009,-0.0387723785867927,-0.0441900064480919
69,69,0.172573349891657,-0.0407658936516501,0.895646207484409,-0.00327023195810267,0.0168512890305209,-0.00644982390624946,0.00672685244902668,-0.0588798952876147,-0.0489763348598781
70,70,0.172591712936946,-0.0405539764155704,0.895640289932218,-0.00289699302734534,0.0159652196000088,-0.006534032471542,0.00728189263838295,0.00511083587488054,-0.0221743474493406
71,71,0.172623422715542,-0.0403509422964329,0.895636423352957,-0.00167193838286089,0.0159216612562756,-0.00634112797335609,-0.0532850265561395,-0.060668816104907,0.00754359529728296
72,72,0.172663705098776,-0.0401570886907728,0.895634957427111,0.000295160323398916,0.0160868983110204,-0.00595617701219871,-0.0508854671001305,-0.079031129980003,0.00906761432007173
73,73,0.172714331795911,-0.0399652598853674,0.895634851321882,0.00209874315543123,0.0159127556275706,-0.00542922740219691,-0.035619617619229,0.037226404731781,0.0555832845407494
74,74,0.172777072693872,-0.039768296931833,0.895635067693736,0.00364433978326708,0.0156430043121309,-0.00479551447567789,0.00137299781947514,0.067325969624075,0.0561140746580417
75,75,0.172853694903906,-0.0395590362045145,0.895634573997056,0.00478523325502306,0.0155190579665946,-0.00408129592846629,-0.017749987293172,0.078784314954434,0.042650818034122
76,76,0.172959515074572,-0.0393338975878372,0.895632575580779,0.00526593619776402,0.0160216066132969,-0.00306524340670196,0.0303337698267337,0.0283827506899149,0.0254900490202545
77,77,0.173093345025456,-0.0390976485786909,0.895629779983252,0.00573585815444626,0.016771553087222,-0.00182793163362661,0.0496616771876471,0.0564989008816968,0.0625133337140507
78,78,0.173232195002234,-0.0388556445631848,0.89562740678231,0.00571277522392089,0.0177400635884585,-0.000577490990549186,0.0793736137362477,0.0464430364580606,0.102143858660119
79,79,0.1733530826459,-0.0386132463338225,0.895626663426656,0.00551826897117701,0.0188365970173742,0.000388983671268351,0.103081522852996,0.0656260313639143,0.111203251530546
80,80,0.173433033933976,-0.0383758219149105,0.895628745019217,0.00511549174514657,0.0199818196109033,0.000819093807939951,0.0454600619302492,0.0634720060416008,0.0992415767655117
81,81,0.173473176584825,-0.0381506556351563,0.895634599706106,0.00354988054087384,0.0210385474335021,0.000575254609460907,0.0432953565330436,0.0521145812873091,0.0409707027106384
82,82,0.173488834595729,-0.0379341687002561,0.895643435365106,0.00150056425711598,0.0216664324157088,-0.000174490077641247,-0.0405988179118534,0.100949263212811,-0.0156985742252791
83,83,0.173478331751494,-0.0377154436595271,0.895653829177392,-0.00101567091378499,0.0223597170040615,-0.00117380341379555,-0.0675688782420659,0.0842077316103645,-0.0968750250748675
84,84,0.173439987128128,-0.0374835667347202,0.89566435402615,-0.00349781170946986,0.0230943399139086,-0.00219891888478515,-0.0694607333874897,0.0949792475156418,-0.146369361904232
85,85,0.173372114870051,-0.037227626046359,0.895673577222111,-0.00581344189182781,0.0240034222672183,-0.00298522953824789,-0.130157612385809,0.121510222238152,-0.160228453912651
86,86,0.173260171426877,-0.0369518262164655,0.895681232713468,-0.00827104393891866,0.0251418592087296,-0.00362251556389281,-0.099828147095247,0.114792433764426,-0.134945043443108
87,87,0.173105279998913,-0.0366634459052315,0.895688279610822,-0.0108255598498225,0.0265444374637834,-0.00426964197984056,-0.0969726472673727,0.0832279897865045,-0.139208382956789
88,88,0.17292925045214,-0.0363561846244466,0.895695114641938,-0.0133343327361978,0.0277523794264106,-0.0047673100091085,-0.0672989317674846,0.138291794049282,-0.0879917499215662
89,89,0.172753890875883,-0.0360237428702914,0.895702128986865,-0.0152472275558274,0.0292702740788426,-0.00501701184877476,-0.0520016836648136,0.15570100721907,-0.0187970681418681
90,90,0.172601008098681,-0.0356598219932169,0.895709709722057,-0.01680866347161,0.0307713314085438,-0.00482390486627542,-0.0420152679250925,0.161948651831571,0.00540106988431947
91,91,0.172469663348469,-0.0352592073783991,0.895716807241165,-0.0171029067635118,0.0328841152849045,-0.00410738994710949,-0.0459282334262766,0.109058801778793,0.0270573174713355
92,92,0.172345312282716,-0.0348260918591011,0.895723159011926,-0.0167696865365766,0.0354362833518873,-0.00294850117576178,0.0201913793018843,0.118371107859805,0.0245210757250708
93,93,0.172229357964333,-0.0343682900714807,0.895730333996007,-0.016146262520194,0.0380372583891682,-0.00156305229183475,0.0332290270765193,0.0960329961790444,0.0490936277039969
94,94,0.172123210252651,-0.033893622512303,0.89573990515126,-0.015603314492741,0.0404343688345784,-0.000162273073332973,0.0452974785921847,0.0772703429799993,0.115639976294946
95,95,0.172028285704054,-0.0334099195709933,0.895753450685692,-0.0148157662523519,0.0423394951063214,0.00100420746158892,0.0129518439821134,0.0804432698725875,0.157470419995987
96,96,0.171949013548577,-0.0329150350642207,0.895771443196023,-0.0136916792019206,0.0436797430156868,0.00199153078162446,-0.106084292765287,0.0426022748157563,0.128664760442797
97,97,0.171884469639177,-0.0324037567480817,0.895792844863497,-0.0127947103568719,0.0444166266195052,0.00298569021669176,-0.135267414969067,0.087764528589431,0.163599433518524
98,98,0.171828036581053,-0.0318793341031055,0.895816986006551,-0.0124082630463937,0.0448968732362256,0.0038934015143256,-0.112768312509507,0.00349636903526381,0.126556049024342
99,99,0.171773085886464,-0.0313450289798522,0.895843214663322,-0.0121109102579766,0.0450237927813882,0.00463486743083714,-0.161414591269575,0.0210272624615967,0.0483158036127331
100,100,0.171712977962748,-0.0308041197728264,0.895870903286865,-0.0119813385691316,0.0454547813250059,0.00508520291044072,-0.170209544820871,-0.0148658418659149,-0.00635843562318132
101,101,0.171645696115478,-0.0302593662440683,0.895900044986038,-0.0122402840444396,0.0461330314304588,0.00522149806486297,-0.191924494195195,0.0177086445321832,-0.0208516529791748
102,102,0.171575655080721,-0.0297086447912183,0.895931147539397,-0.012328374222492,0.0467464867861671,0.0050567771176798,-0.202547988564441,0.0203571690356856,-0.0154463023692926
103,103,0.171505859080922,-0.0291479403630248,0.895964406735117,-0.0120033629704599,0.0473440652070819,0.00469040157395967,-0.185360546410758,-0.00725337412964007,6.94729025009471e-05
104,104,0.171439320470025,-0.0285732638691977,0.896000061472678,-0.0112422438617181,0.0481527523910708,0.00416730217732903,-0.159473072938939,-0.00942612751852259,0.030734207037061
105,105,0.171379061697598,-0.027980663285548,0.896038407961655,-0.0105115394829315,0.0492781280537031,0.00357337464681725,-0.144018908693712,0.0404181183441457,0.0631816176645845
106,106,0.171321074892497,-0.0273532589099237,0.896083428681564,-0.0101225109747136,0.0507548311056509,0.00303530519913098,-0.126170440565064,0.00386348539747681,0.0289736506078304
107,107,0.171263344542035,-0.0266939311049715,0.896135229659501,-0.00999760658690498,0.0527713215415123,0.00249727452929708,-0.124263062165952,0.0671291745789401,-7.23572078591098e-05
108,108,0.171211912577402,-0.0260283671252727,0.896188371352546,-0.0100769074344815,0.0547912363858283,0.00183840432593335,-0.0777523010723296,0.058472235560705,-0.028745024063367
109,109,0.171172852741467,-0.0253821858424596,0.896237449528451,-0.00950713975291748,0.0559754015586579,0.000893736381217189,-0.0890924927699683,-0.00957245136368733,-0.0649524144403695
110,110,0.17115226742124,-0.0247809172666829,0.896277098927051,-0.00895415584251747,0.0556916922941126,-0.000409229308095298,-0.0247258273078785,-0.0159978471724111,-0.0958564517214337
111,111,0.17116695103367,-0.0242138670215039,0.896307099807369,-0.00779954096851131,0.0536969192745624,-0.00233624058326533,-0.0293293442335369,-0.0688862177086578,-0.133142678242531
112,112,0.171212917662111,-0.0236642599587883,0.896331694622731,-0.00613238411902807,0.0499841899124543,-0.00480880508654009,-0.00184020743646456,-0.0738010322028558,-0.159840367214649
113,113,0.171265079549245,-0.0231482282016052,0.896352102514785,-0.00441137093222953,0.045186643313003,-0.00744556027121334,-0.0632338058790206,-0.124955531193869,-0.185358983126267
114,114,0.171298301878855,-0.0226816066389349,0.896369320379632,-0.00265650865684021,0.0411388438001972,-0.00981223098648573,-0.100282532702763,-0.185676776076966,-0.195101153603377
115,115,0.171287410152822,-0.0222799228713028,0.896384097188481,-0.00105610244409932,0.0374430221831509,-0.0116132373240811,-0.0947652778792076,-0.153805700973604,-0.216104970703685
116,116,0.171224241887662,-0.0219755261656418,0.896385804290282,-0.000432522296569553,0.0337842179348981,-0.0129262010622339,-0.053574996920478,-0.140578338888303,-0.204157798717031
117,117,0.17112552519126,-0.0217573753550122,0.896374262563245,-0.00065546969734704,0.029185543694906,-0.0140239596387542,-0.0294241284902513,-0.120141439957896,-0.163257571282441
118,118,0.171003404093026,-0.0215758821859212,0.896365502064913,-0.00186474538840602,0.024315975906309,-0.0147004733685642,-0.0239481845847888,-0.12584830264234,-0.0726785355185386
119,119,0.17087004640528,-0.0213817442397001,0.896375274538361,-0.00360275483040893,0.0196002339124799,-0.0147609044744572,0.023404627819213,-0.130749462177408,0.0272619335080964
120,120,0.170737651489067,-0.0211259563746062,0.896419063050456,-0.00549318966900993,0.0154532799580779,-0.0139826239322103,0.0156230642367384,-0.153604406783376,0.129127668109493
121,121,0.170599280084855,-0.0207822687685947,0.896507485793417,-0.00762371970954286,0.0124748870551798,-0.0120985044823676,0.00272338245908068,-0.229974756660329,0.188443097188436
122,122,0.17044679660295,-0.0203832858015764,0.896629856487633,-0.00927142494617461,0.0109882189791028,-0.00924972772895452,-0.0282636315453522,-0.30117962282817,0.249609192472472
123,123,0.170290611354322,-0.0199685764183146,0.896769571304196,-0.0110152065624294,0.0105899010398216,-0.00580678708664604,-0.0965823642719845,-0.355507466613801,0.256464277206812
124,124,0.170141117644664,-0.0195778130587259,0.896910077975455,-0.0122246834344432,0.0106875256196292,-0.00218431819371259,-0.110823634309733,-0.408576846013511,0.271144579199358
125,125,0.17000869726949,-0.0192507728369732,0.89703486964307,-0.0135387588880217,0.010542048306453,0.00111403729341009,-0.0708787635298987,-0.384065108931667,0.271120276321938
126,126,0.169885208266264,-0.0189955151776655,0.897153717551847,-0.0149556597552881,0.00980655577925119,0.00437875002015314,-0.0201250466432038,-0.400738523069986,0.298137723055974
127,127,0.169763711840379,-0.0187857131408419,0.897277478933021,-0.0168781223345795,0.00820591026239704,0.00805740032912021,0.00116683673621893,-0.40434146677429,0.287992772301968
128,128,0.169656387747022,-0.0186096719002167,0.897391299806551,-0.0180775660059914,0.00624405292265494,0.0116221724385729,0.0427433284895884,-0.379760328668873,0.276855543989637
129,129,0.169575414666066,-0.0184557178706906,0.897480299455874,-0.0184109171927673,0.00437941083552973,0.0146536478002392,0.0871553914297926,-0.377490119802169,0.240668994598924
130,130,0.16953297742148,-0.0183121858610924,0.897529572700392,-0.0174966969113935,0.00278709113147353,0.0169316582526855,0.03108796601178,-0.387265063359201,0.188007699507203
131,131,0.169531719235877,-0.0181914363841151,0.897526401940928,-0.015491405673013,0.000916043084537922,0.0183817080156008,0.0345802860153963,-0.374410288127561,0.141920166710725
132,132,0.169563560690235,-0.0181015286847325,0.897480595281013,-0.0122749420583589,-0.0016743066635092,0.019185281486536,0.0282540234819261,-0.380219040503838,0.103895897850968
133,133,0.169624605407068,-0.0180242114336091,0.897410969610189,-0.00859899299066146,-0.00463963216333527,0.019418836042693,-0.00955852168189314,-0.390486518216883,0.153065903403244
134,134,0.169710936965346,-0.0179410678700217,0.897336268630217,-0.00484739250326866,-0.00727341249005416,0.0193065490732519,-0.0506985872437983,-0.359327732344559,0.120796890952712
135,135,0.169818612482791,-0.0178335351884835,0.897275167048207,-0.00131174371997249,-0.00848671785109722,0.0189468949480716,-0.0804095094080029,-0.401659160616805,0.122926737529117
136,136,0.169963763387877,-0.0176743064594673,0.89722106163692,0.001809629318973,-0.00781880705927298,0.0182969381406038,-0.0627647054558489,-0.381967572560175,0.140034040157324
137,137,0.170149063329327,-0.01747561056019,0.897161301090887,0.00482874263843637,-0.00547634281932558,0.0172729440611097,-0.0747541766759605,-0.361519727475811,0.0945923699030957
138,138,0.170350354169499,-0.0172780849044196,0.897105369983599,0.00757823769367382,-0.00316160522710555,0.0159887426325321,-0.0495019699435258,-0.297530380659907,0.0200732482362445
139,139,0.170543461438641,-0.0171223614131429,0.897062660626232,0.00977920050576484,-0.00133250496467482,0.0146219210503572,-0.0170268420887476,-0.311459700544099,-0.0301483295711872
140,140,0.170704188835955,-0.0170490723409756,0.897042492287727,0.0117457682153777,-0.000809532879274195,0.0132855988153499,0.0107201410001037,-0.336701083668475,-0.0253714350446905
141,141,0.170849034477699,-0.0170556833312409,0.897045808187008,0.0140644349338698,-0.00195915080181952,0.011956273861021,0.00952606529238595,-0.4033262795356,-0.0669473350720486
142,142,0.170994132437402,-0.0171150044504354,0.897066124630679,0.0165378217411711,-0.00426811870449849,0.0105248805275731,0.0552838140496882,-0.443342293099799,-0.0814057694828453
143,143,0.171114711964923,-0.0172307024069617,0.897101562073962,0.0184649614897817,-0.007768304584971,0.00907636029769881,0.0237764117643292,-0.406668833441352,-0.0717962913994798
144,144,0.171185995399988,-0.0174064622645437,0.89715023053981,0.0191699298245777,-0.0118783595752496,0.00764615218197291,0.0224114604929598,-0.475028013105837,-0.0785757075698681
145,145,0.171183205014871,-0.0176459854577081,0.897210264198446,0.0187255172366103,-0.0163813155133987,0.00628199433812307,0.00331250411484339,-0.416963821217104,-0.100152719063368
146,146,0.171113512316712,-0.0179549760015937,0.897294345054145,0.016579497157846,-0.0213172523251823,0.00501952662102573,0.0213147904593999,-0.418588169706659,-0.122238899981128
147,147,0.170993423937807,-0.0183309811112572,0.897403719720428,0.0135883236735609,-0.0268957804850325,0.00376113245960269,-0.068103459418555,-0.453273942829726,-0.19049064092474
148,148,0.17081216669268,-0.0187654873512904,0.89751946145201,0.00917071259083617,-0.0332640987769496,0.0025924426049862,-0.044258049328931,-0.476325062205768,-0.204553323228515
149,149,0.170558954012566,-0.0192499932156823,0.897622708209903,0.00402842533609069,-0.0400266618826207,0.00159064024681009,-0.0289648148682925,-0.489533086511473,-0.22179625645343
150,150,0.170222975538035,-0.0197760073577693,0.897694667656827,-0.00163961450325773,-0.046666959128508,0.000782675321919649,0.0148198427087737,-0.508288264065081,-0.233350129736706
151,151,0.169768594727762,-0.0203370379424552,0.897735684583171,-0.00784591487095848,-0.0530851544168871,0.000310679943170717,-0.0188041726667237,-0.541843869790707,-0.234718492947168
152,152,0.169202957726748,-0.0209388630608684,0.89775897048699,-0.0152579184184889,-0.0599733387823906,0.000143289450973091,0.013206329845427,-0.52942340375107,-0.234211806065043
153,153,0.168579402404971,-0.0215913905717866,0.897765000765369,-0.0233635451407253,-0.0668055497743772,5.52954230842663e-05,0.0319572623572539,-0.553933442715916,-0.176576819923422
154,154,0.167951264780274,-0.0223045078295798,0.897754066770016,-0.0315163690484367,-0.0737487528792914,-6.09939727406493e-05,0.0541372816174504,-0.538258972222045,-0.161422040086332
155,155,0.167371878702405,-0.0230880806305561,0.897726222571519,-0.0388100732738953,-0.0801811307558936,-0.000327466887877654,0.0409379571336118,-0.509689061203821,-0.13293335154145
156,156,0.166835032151139,-0.0239423793033781,0.897672528749276,-0.0457876443781665,-0.0850270010016352,-0.000752939266109626,0.0075049559531332,-0.521455059981066,-0.139452527941763
157,157,0.166305068902217,-0.0248609346021397,0.897593588406136,-0.0525574699431103,-0.0891830686711633,-0.00121922653966385,-0.050628324855292,-0.582094885766647,-0.148798558956693
158,158,0.165791154851677,-0.0258435173326032,0.897503342649055,-0.0583172764084716,-0.0930569126574434,-0.00189361150959968,-0.0742035246695775,-0.559544389241279,-0.192132906464349
159,159,0.165302459244658,-0.0268899324446223,0.897415386468498,-0.0628638753215989,-0.0972177836806434,-0.00272289160373718,-0.038865614462948,-0.560703700758018,-0.190149713836138
160,160,0.164848163819425,-0.0280000056256706,0.897342955763243,-0.0655245754370791,-0.102556102222283,-0.0037691406763717,-0.00702460228437763,-0.526902252829688,-0.260660771166103
161,161,0.164432654500301,-0.0291725241013437,0.897290119790071,-0.0660660926115102,-0.10890969328473,-0.00550664182550187,0.0484043876211143,-0.51618320994822,-0.262587363499494
162,162,0.164049722885745,-0.0304079290977443,0.897247847367545,-0.0643605194652288,-0.116409501674499,-0.00793726732831012,0.0884347161604233,-0.398442323391408,-0.283763816442206
163,163,0.163692711207677,-0.031708327562129,0.897209526661444,-0.0609464518231757,-0.124853507031802,-0.0102770118996943,0.0793456437986053,-0.377965422784332,-0.327639420429473
164,164,0.163355009943236,-0.0330755669234125,0.897168624712188,-0.0568899433358181,-0.133279380704734,-0.0120008172013867,0.150281967366777,-0.448610164824445,-0.258083006227851
165,165,0.163030068166061,-0.0345112496549076,0.897118688565131,-0.0531181600947944,-0.140378482710587,-0.0127065035571394,0.180225427899956,-0.446542912065325,-0.166063390671566
166,166,0.162704938905692,-0.0360492439117836,0.89704249945625,-0.0499443757768605,-0.147155184727181,-0.0121379211045769,0.172226761077895,-0.50122067726001,-0.0186904848460244
167,167,0.162384077878486,-0.0376882050973538,0.896944540884389,-0.0471275450433601,-0.153651587237934,-0.0106117601228378,0.0825564957090483,-0.526813030155818,0.0496664313879005
168,168,0.162087156578877,-0.0393766739151222,0.896850768550394,-0.0440436726913214,-0.159768783545624,-0.00843311927924487,0.0259045159950415,-0.502896286863249,0.10298574225716
169,169,0.161833902931645,-0.0410631008541267,0.896786848673718,-0.0407842231990845,-0.164824145692422,-0.00557582786647678,0.00910093603613491,-0.396459946865741,0.242130691504917
170,170,0.161644061089103,-0.0426958605163591,0.896778171243464,-0.037058691391197,-0.168162333340348,-0.0021525432786973,-0.00751598547440851,-0.403596977409421,0.390885786962851
171,171,0.161544245402917,-0.0442688376128455,0.896833301212157,-0.0318528345234441,-0.168585856492791,0.00268761251492416,0.215090018422371,-0.357674646361807,0.591897806124621
172,172,0.161521580560527,-0.0458159621289069,0.896934843110118,-0.0245155277507709,-0.16710294982515,0.00898660902892079,0.364861326962025,-0.272443997494034,0.663592789433022
173,173,0.161536425854948,-0.0473458206876148,0.897069097534582,-0.0167225880752975,-0.164459022497766,0.015657299318575,0.362430500146361,-0.174471660720806,0.595444668333323
174,174,0.161548978364118,-0.0488672253154698,0.897222415152725,-0.00888511863142907,-0.161211714407734,0.0210064950840358,0.292321536452952,-0.165389358486288,0.396544935785274
175,175,0.161519297068505,-0.050389198449608,0.897381247054776,-0.00267776454577553,-0.159475323279919,0.0236076959945526,0.206245591088346,-0.127636154325834,0.197100794223975
176,176,0.161412668833054,-0.0518888760231709,0.897572015076512,0.000438885357516237,-0.159708213041961,0.0229836684926122,0.258763094110049,-0.0755548421928921,-0.00995788088785246
177,177,0.16125554716145,-0.0533605431150105,0.897803705144915,0.000583067361138999,-0.159951840524792,0.0201579412012973,0.16161661922531,-0.0535736019049362,-0.152149776993778
178,178,0.161099695388815,-0.0548390332478561,0.898036871779146,-0.000659732722536376,-0.160272829073316,0.0160950657555758,0.0526325775125359,-0.0328057603432711,-0.333046576397438
179,179,0.160996917220333,-0.0563590135939401,0.898232186400145,-0.00232027481356031,-0.159969223720703,0.0114675016513132,0.139565095846751,0.00569743201391206,-0.341502488066641
180,180,0.160999007192309,-0.0579549282148189,0.898350402182393,-0.000897318944920224,-0.159228704908818,0.0072607678013542,0.0455808470088514,0.0868235817229668,-0.371411924934864
181,181,0.161134682952254,-0.0596901636590531,0.898377370622933,0.00492122545562166,-0.158259500643863,0.00290618966562443,-0.0451229673059577,0.0864700803168058,-0.338610725254829
182,182,0.161369112106476,-0.0615416041090101,0.898339957759434,0.0141102562804358,-0.158050990356635,-0.00212232722357333,-0.106003767850696,0.140250843769291,-0.265634160882012
183,183,0.161658794682665,-0.0634136792841082,0.898260370715902,0.0242215201740528,-0.158007309934507,-0.00711947923467534,-0.0905478790942773,0.17860212222843,-0.219839713323116
184,184,0.16196041620283,-0.0652107109315365,0.898160616005752,0.0328448543591938,-0.157143455244584,-0.0113401195609939,-0.0318562041940903,0.213820924733295,-0.129263308060922
185,185,0.162230892763011,-0.0668369219594761,0.898062484499986,0.0378284599185503,-0.15362184863843,-0.0141048739910801,0.0662166809815153,0.265158836019561,-0.0496136659143021
186,186,0.162477959108079,-0.0682911765051475,0.897957736626978,0.0386815681288419,-0.145697346614687,-0.0149341976029325,0.151623991788086,0.294163998173222,0.0539791613259288
187,187,0.162730335128732,-0.069636440872093,0.897832297779371,0.0365214036795027,-0.134233702063059,-0.0143220264276927,0.143994575316507,0.342770426380809,0.139879271197938
188,188,0.162976605327441,-0.0708734113227317,0.897698934856657,0.0323720520940576,-0.120976567234025,-0.0128956218999854,0.139757168602555,0.495367762441831,0.154596238075251
189,189,0.163205367381196,-0.0720033566412077,0.897570236973479,0.0271556919274773,-0.107494003326264,-0.0113054817975254,0.19667562011719,0.57883755923825,0.16173102113759
190,190,0.16340523662893,-0.0730281489249679,0.897458594695752,0.0230176471087029,-0.0951375344415534,-0.0101479811302612,0.106512837289529,0.596996661114837,0.0661887245323662
191,191,0.163571939658071,-0.0739114165444827,0.897381714399055,0.0193835321759375,-0.0838875000624881,-0.00975710395825926,0.0478749285783389,0.618668186763865,-0.00744745828447183
192,192,0.163713089485035,-0.0746524084788636,0.897331402815164,0.0149934268151308,-0.0723963232892973,-0.00959689451986808,0.0396238741241491,0.618854876526364,-0.0276036583650989
193,193,0.163835165895074,-0.0753068997877061,0.897281009748699,0.0119311596836767,-0.0624208602946625,-0.00938752936082046,-0.083449876018665,0.664006281268164,-0.0115823006026687
194,194,0.163944677879874,-0.07593070175494,0.89720384489796,0.0103296722163476,-0.0541196421805446,-0.00881128669908655,-0.0968528980564214,0.60013225764426,0.0124955439333704
195,195,0.164048185368204,-0.0765796549152176,0.897073189690997,0.0101974687425312,-0.0485614780089452,-0.00746042048054815,-0.0260329611483692,0.565639322825417,0.0979342872045093
196,196,0.164140310568366,-0.0772732975310774,0.896847261086626,0.0120244072752467,-0.0464231062120135,-0.00511568298424987,0.0570386248308561,0.524490037072394,0.172112658126691
197,197,0.164216864084111,-0.0779751054349695,0.896544013486322,0.0150578894034795,-0.0480603222908619,-0.00201120445096077,0.125550427571932,0.537378667009713,0.254526619922472
198,198,0.16428622713651,-0.0786566954745336,0.896226117015467,0.0189882824981149,-0.0506081432150199,0.00151610209140175,0.158810668273253,0.464084305063465,0.268824090668652
199,199,0.164356723670674,-0.0792894660917362,0.895955951267125,0.0231425024836131,-0.0525203684425135,0.00511883683826674,0.156099760740425,0.477479871791895,0.363100554968362
200,200,0.164436597314324,-0.0798445838739985,0.895795614862622,0.0270560775983984,-0.052203080279243,0.0082459910528676,0.120522057078039,0.538356167605061,0.462297257855356
201,201,0.164526958671107,-0.0803098188154666,0.895789964701484,0.0306858002680862,-0.0480249778198668,0.0112197375332328,0.00761124274210195,0.628546207401459,0.492262419505912
202,202,0.164622382368751,-0.0807046438180475,0.89589724489144,0.0339836509540878,-0.0404345216401551,0.0144740475887687,-0.0528858485902195,0.681448352189915,0.524974399571467
203,203,0.164721235735922,-0.0810473806256411,0.896049255609361,0.0366989798211296,-0.0308728536199254,0.0174622858920785,-0.0699981041243206,0.691431571570494,0.433978712354317
204,204,0.164821892053649,-0.081356054282366,0.896177550005747,0.0385732837557251,-0.0207559910316082,0.0194356768377374,-0.0650825748272363,0.664115575227369,0.30841849699616
205,205,0.16492274183171,-0.0816484294576415,0.896213464487226,0.040355757592869,-0.0125079519185136,0.0196152627093676,-0.0851155049535916,0.630703901691093,0.121378469472008
206,206,0.165030811358391,-0.0819345546345627,0.89615282459902,0.0424702021702277,-0.00732274085018851,0.0172418527569757,-0.175477629903971,0.641408364449154,-0.0737379201928799
207,207,0.165147216746533,-0.0822020845322063,0.896040727772189,0.0451365575068498,-0.00351398192239309,0.0128124401280631,-0.194812423285191,0.585671748078368,-0.195417906677143
208,208,0.165261493850696,-0.0824351446156087,0.89588218648228,0.0480557888201281,-0.000732321723942716,0.00736441172113271,-0.287593660147852,0.582964900056734,-0.311844176117394
209,209,0.165363176452947,-0.0826180138039192,0.895682104322299,0.0499801977248916,0.00181423448548143,0.00201051937626557,-0.234254900765286,0.543450015272521,-0.336512534588205
210,210,0.165441789458717,-0.0827351093403144,0.895445322961534,0.0504009787297017,0.00460483317097557,-0.0022156791706777,-0.179050631353966,0.551531219101476,-0.350862957158594
211,211,0.165502802261514,-0.0827875866241812,0.89512142195322,0.0491217540467145,0.00853832995091411,-0.00517047706732757,-0.129254040941927,0.580434880964656,-0.306840729451926
212,212,0.165553202456232,-0.0827858038551507,0.8947066634571,0.0471513085919397,0.012746663452,-0.00758896692139484,-0.119243394071129,0.536717561637772,-0.275366938088704
213,213,0.165584785886271,-0.0827280745955109,0.894275989623878,0.0443086922543128,0.0174424493648437,-0.00960031203410895,-0.144607020802845,0.524089386947015,-0.261223804223187
214,214,0.165589353942625,-0.0826127187227269,0.893904429761735,0.0405431628634384,0.0220598362279553,-0.0113518857935076,-0.0988865347611872,0.531009415892519,-0.220424307795368
215,215,0.16555871253975,-0.0824380500547051,0.893667072839911,0.0362425219287643,0.0268260175867654,-0.0129963484754257,-0.0514751798204343,0.505117140628783,-0.197182757200101
216,216,0.16547802104701,-0.0821856483229464,0.893581653964386,0.0311098453880332,0.0315453602092675,-0.0144514337823161,-0.0129297732058323,0.527273543215365,-0.202512067617081
217,217,0.165352714754816,-0.0818566102764752,0.893598314794716,0.0249599111171383,0.0361031617161376,-0.0156173191016508,0.0220226916052554,0.566051086055168,-0.242435725236525
218,218,0.165205018478598,-0.0814785342763702,0.893690808936413,0.0180873263284153,0.0408891239140986,-0.0164509266842831,0.0145438905200488,0.542230566121649,-0.314582386788394
219,219,0.165057164815086,-0.081079062780728,0.893832896226203,0.0112265270203836,0.0462921423041777,-0.0169046141864965,0.0313238643822769,0.456740913096035,-0.319667060550826
220,220,0.164931397208009,-0.0806858991755806,0.89399831731765,0.00445812611815312,0.0522001996864959,-0.0169150593140857,-0.0363784166922121,0.445743168991108,-0.300783503690193
221,221,0.164842849084756,-0.0803252877938856,0.894217629612858,-0.00273529900206653,0.0585062341383348,-0.0164146076682562,-0.0475432135832488,0.45896142327886,-0.321693897356334
222,222,0.164776643922658,-0.0799788817413286,0.894508927062593,-0.010565319238016,0.0646155572956111,-0.015500663587848,-0.0589806809005766,0.496435597423503,-0.28054378993246
223,223,0.164710025477494,-0.0796075517252182,0.894827162352142,-0.0188753405906912,0.0705620668662617,-0.0144480634064551,-0.0306693882481179,0.533747178576253,-0.202404345481799
224,224,0.164620260451277,-0.0791721646206688,0.895127164477819,-0.0270879863071175,0.0760959901579525,-0.0131918874976517,-0.0157801058384285,0.571079676704668,-0.0947347772862575
225,225,0.164484648491444,-0.0786335726712463,0.895363614816206,-0.034605740324644,0.0813304333966964,-0.0117933292575708,-0.0457002215882996,0.560976033721707,-0.0280445859710901
226,226,0.164297768346269,-0.0779878909161931,0.895527831156825,-0.0421176768859921,0.0863898968457815,-0.0100870649480768,0.0380951025684824,0.513836961564959,-0.0239759680079338
227,227,0.164074803867661,-0.0772614449053462,0.895650570872256,-0.0499665407110011,0.0908751908100751,-0.00813591629423551,0.0925994678267637,0.55136469726594,0.011909683067931
228,228,0.163823950208508,-0.076460272124199,0.895745422537122,-0.0576333273022498,0.0956052932660078,-0.00610540128455538,0.136135704540763,0.478500640048495,-0.0350120527980051
229,229,0.16355334155877,-0.0755902558875528,0.895825766324466,-0.0636830844684291,0.100415036400504,-0.00433130264900234,0.137916321586965,0.484568710127179,-0.124799005106714
230,230,0.163271049936217,-0.0746571279249251,0.895904767333313,-0.0676084817786221,0.104800575563041,-0.00317673023167793,0.0915843271088606,0.513681422013663,-0.244175417799557
231,231,0.162950097579059,-0.0736374921713838,0.895969902805009,-0.0697273515399202,0.109938304154992,-0.00311536862363832,0.0745712385550556,0.537714569882071,-0.288425541281463
232,232,0.162585010835998,-0.0725272814645901,0.896012613483715,-0.07003574936826,0.116483724995338,-0.00418120801091447,0.0927311205907886,0.513345659140621,-0.29413024501136
233,233,0.162216129872335,-0.0713612545810028,0.896051694952476,-0.0689000296524784,0.12407608928967,-0.00557527869934752,0.0262662862469296,0.534083607971531,-0.148922411230141
234,234,0.16188386436135,-0.0701743658550474,0.896105715545623,-0.0665242805429741,0.132439270620142,-0.005935348601176,-0.0770903524584337,0.54623601949219,-0.0715377127467482
235,235,0.161628691324782,-0.0690017554168439,0.896193016747002,-0.0625273528475454,0.140234445323614,-0.00432551222967668,-0.0727711861179614,0.569814205775767,0.112581852679995
236,236,0.161482417968174,-0.0678521439784365,0.896309362907333,-0.0543471783730581,0.146188891586168,-0.000124477044098144,-0.0746142548893604,0.565871468433864,0.281648391125954
237,237,0.161418166659103,-0.0667024366803099,0.896442344260778,-0.0418726675452143,0.149838949829136,0.0057500100053843,-0.0735285774301369,0.603417477378752,0.541455126272818
238,238,0.161388453454182,-0.065540000460302,0.89659770945377,-0.0284169973346994,0.151340919889726,0.0123406762198683,-0.0549197979492934,0.595154501511938,0.760468071174056
239,239,0.161345805507721,-0.0643519776938474,0.896780989290308,-0.0156379395952984,0.152141882517716,0.0184331429415209,-0.0047476362106991,0.545831603133401,0.908914697988238
240,240,0.161242749473301,-0.0631252988757635,0.89699752565982,-0.00635356099180577,0.153214582775313,0.0227834753719848,0.0754476593566743,0.374629716987988,0.848302724839862
241,241,0.161072250649014,-0.0618444501583434,0.897271429036225,-0.00173628315959875,0.153246830990365,0.0252705657899169,0.185741517226411,0.286196988859284,0.70970105467396
242,242,0.160866136063015,-0.0605178067997065,0.897598472285287,-0.000409568168187445,0.151993456723953,0.0266048585407761,0.206929215711936,0.319308513242011,0.507704286861454
243,243,0.160635139737323,-0.0591681254007176,0.897941572872327,-0.00145859987278272,0.149484169615359,0.0268805809755831,0.130511920991679,0.31415234853096,0.223478018281689
244,244,0.160389887777931,-0.0578183280761862,0.898263844848475,-0.00295268017328235,0.146445044006463,0.0261337240007307,0.0353750597726828,0.256425054119595,-0.0823426507340505
245,245,0.160140903237363,-0.0564914915793445,0.898528567699671,-0.00533064525601598,0.144392649896985,0.0244454082455367,0.0745548307215555,0.183187032132091,-0.361042126281429
246,246,0.159866914163901,-0.0552008571141552,0.898724808817967,-0.00889630422545391,0.142534970022892,0.0209707629994058,0.172170647753149,0.0976070458141086,-0.476844051661516
247,247,0.15956078822272,-0.0539311685562435,0.898877083780751,-0.0128610336477914,0.140100432166856,0.0156964344141826,0.0721406536457985,0.0194139504666803,-0.536248940420061
248,248,0.159254203778726,-0.0526628021916432,0.899001969467652,-0.0163447713046258,0.138181490678567,0.00997775377554159,0.0179983736132652,-0.0523790855528217,-0.384343915214488
249,249,0.158978869893488,-0.051376050011243,0.899116027900616,-0.0176852741026876,0.137246842263381,0.00498192633385103,-0.0799008076564946,-0.175223770831596,-0.185307764371199
250,250,0.158766531373667,-0.050051155082716,0.899235799476746,-0.0160965708574755,0.136319708131345,0.0018020673381651,-0.0555211683396097,-0.312731561301266,-0.0181203020999255
251,251,0.158643684580786,-0.048660590302506,0.899360421445948,-0.0132154457685213,0.134641835365042,0.000876330433378575,-0.0995771502744745,-0.273754772591037,0.0828025348699618
252,252,0.158589151937644,-0.0472175519644263,0.899478843805489,-0.00987452719524634,0.132094560415188,0.00144282045838671,-0.0382924333536189,-0.290232215532744,0.175306312434252
253,253,0.158563190775987,-0.0457633324127913,0.899592366837061,-0.00598939469859949,0.12860526606849,0.00285303757293077,0.0133577200917963,-0.36748159345561,0.204592178550434
254,254,0.158526055051376,-0.0443392034434237,0.899702407815468,-0.0023582358867373,0.124055248533821,0.00451945391103617,0.0629998391737956,-0.471269780929734,0.17083132458058
255,255,0.158437984690895,-0.0429864440430306,0.899810552543441,0.000951479540044895,0.119680109732502,0.00584762151899607,0.095302753875532,-0.586981425564882,0.17109375544196
256,256,0.158254683740174,-0.0416997476017568,0.899912408829437,0.00244153467546752,0.1145924472692,0.00702477715439304,0.199791564425061,-0.606178467085044,0.156878794990684
257,257,0.158002616045552,-0.0404519126225984,0.900007504816475,0.00175639020372825,0.107603337943179,0.00846583323509366,0.309346068277811,-0.590630569332948,0.136538938008023
258,258,0.157748136066013,-0.0392513269162659,0.900103362297184,0.000538461151099399,0.0995962125565337,0.00987183448049855,0.19485934501876,-0.499824393443753,0.159790421672166
259,259,0.157557603210604,-0.0381061919224988,0.900207288563097,-0.000721229579534648,0.0917201995509295,0.0110540213101789,0.190705212391956,-0.546635033754019,0.183750012775623
260,260,0.157497393490944,-0.0370244681249053,0.900326329106594,-0.00185641329763095,0.0844202233883011,0.011790647561,0.2178326155565,-0.505281200634032,0.19646971260265
261,261,0.15759707926925,-0.0360093367941436,0.900473724121633,-0.00142019812595999,0.0787566906563272,0.0118610520176374,0.178395972885121,-0.437297782411644,0.147570462728503
262,262,0.157812346701696,-0.0350556767192278,0.900645100928021,0.000709711083703808,0.0741395893187237,0.0112550011938094,0.139382200860571,-0.397710387108403,0.105842715645123
263,263,0.158098781029172,-0.0341585819747684,0.900820762593705,0.00384364982556978,0.0697401382060738,0.0103976966810256,-0.00564266424426203,-0.428490940595899,0.0373657215503738
264,264,0.158411997184101,-0.0333128258106725,0.9009808380419,0.00755827341969535,0.0660709295282284,0.0094961259835884,0.0150362691510185,-0.462426836968714,-0.0490428256338511
265,265,0.158707649094231,-0.0325128668171334,0.901105276755021,0.0108219919073401,0.0623713869472896,0.00876210714011678,-0.023145026452134,-0.495510872088939,-0.127573963392442
266,266,0.159000460626562,-0.0317661302037989,0.90119380680704,0.0135335777994105,0.0580968317447382,0.008298045658329,-0.00220211791762487,-0.474905695134169,-0.107269413657597
267,267,0.159320058363102,-0.031075553830723,0.901259833611614,0.0156637276581976,0.0547820065603068,0.00795920424576913,-0.0388268363067719,-0.523109738109368,-0.127189429011439
268,268,0.159644469869954,-0.03042884787778,0.901303480328246,0.0169210274765482,0.0512510835624703,0.00767047890031463,0.026921663342598,-0.536679265921485,-0.055286474142159
269,269,0.159951684479197,-0.0298140202830173,0.901324591695375,0.0187852335157855,0.047910233322122,0.0072841731159842,0.0558894824417848,-0.539822387720222,0.0135993446689304
270,270,0.160219652880261,-0.0292193759573602,0.901322757166642,0.0205629415563223,0.0442206999925858,0.00674495949468442,0.0602368001485398,-0.592684249337475,0.0716561239036326
271,271,0.160450202468221,-0.0286483966423466,0.901294337909422,0.0217820203442931,0.0387758088387609,0.00622694322826612,0.102345353877644,-0.571929426897995,0.0610625183882789
272,272,0.160658027458307,-0.0281088504510883,0.901239094708711,0.0231012727046674,0.0322490879366139,0.00576022685283958,0.123518430864528,-0.540044467500911,0.0134453361354126
273,273,0.160840362752372,-0.0275957490767244,0.901161466586246,0.0239842353968786,0.0250071580376235,0.00519113453021213,0.0703998807524791,-0.564643960550668,-0.0443140337630417
274,274,0.160994454546294,-0.0271041889735127,0.901065789911324,0.024829036820996,0.0181233963049818,0.00438930027326763,-0.0169825961788859,-0.565763974168784,-0.0998869948837211
275,275,0.161117559291064,-0.0266293388095132,0.900956326007793,0.0252350405587175,0.0129580272185723,0.00307800973977041,-0.0999992702357252,-0.559346038725454,-0.12824650023208
276,276,0.161213088433227,-0.02614626194889,0.900819562973587,0.0246287951847943,0.00993108011612042,0.00111337202556374,-0.133745392376445,-0.513069126035796,-0.187786548565077
277,277,0.161282870043938,-0.0256583653264609,0.900652129789658,0.023412746759096,0.0084735650301891,-0.00141777052345143,-0.126672860144456,-0.457386150717699,-0.192872978062696
278,278,0.161321795526771,-0.0252033437327405,0.900473510287182,0.0213952832900629,0.0077962814431595,-0.00411033958118174,-0.136429280484707,-0.421503055561042,-0.195306545142755
279,279,0.161324775199014,-0.0248188430168663,0.900303229699681,0.018907466874416,0.00721177596646139,-0.00663359472337065,-0.0788522044901275,-0.375286884644075,-0.208703425232556
280,280,0.161286742412189,-0.0245424622210454,0.900160844491778,0.01570166567027,0.00563108996956482,-0.00864214613845683,-0.0559944863865707,-0.354973320597017,-0.140070007277974
281,281,0.161203517805008,-0.0243852028511763,0.900056571910283,0.0122311824158173,0.00292366844937102,-0.0101520951311962,-0.0880318475887333,-0.319460057887986,-0.170482030760885
282,282,0.161078511909538,-0.024322022332545,0.899977233643736,0.00775941657635297,-0.000587431706039403,-0.0113518267312553,-0.0345291841507633,-0.271363318533796,-0.149745419821093
283,283,0.160918066129348,-0.0243363986861397,0.899907341708188,0.00283202477544551,-0.00417181916309983,-0.0122950786386637,-0.0204498235856217,-0.281678156055318,-0.168227806539135
284,284,0.160728523478189,-0.0244117843010015,0.899831433114393,-0.00194340485609591,-0.00888759553472973,-0.0129138046288764,-0.00987890348276596,-0.25864585623446,-0.168275580813206
285,285,0.160516224081366,-0.0245316163326863,0.899734063874273,-0.00635259536495514,-0.0131604395292369,-0.0133041166540857,-0.0254789307618578,-0.358237618853189,-0.190417840612626
286,286,0.160277679502138,-0.024713867451613,0.899605755799622,-0.0102685696954313,-0.018589164120159,-0.0134632769762266,-0.0295079857620147,-0.386071908137708,-0.154346140954159
287,287,0.160008690302277,-0.0249695324926004,0.899456966072862,-0.014081035926796,-0.025382309523102,-0.0133861203238851,-0.0102899306263949,-0.393682409979252,-0.143477632588462
288,288,0.159714510363994,-0.0252715914698609,0.899302172292843,-0.017354935837514,-0.032646215010868,-0.0129687326273767,-0.0452180411594331,-0.403017056937668,-0.118578255989544
289,289,0.159400375036855,-0.0255930340285061,0.899155841623461,-0.0205102386121652,-0.0394142282066781,-0.0122764434822067,-0.0278296884872874,-0.410896406536999,-0.0701215223171089
290,290,0.159071505028316,-0.0259068535352672,0.899032413877552,-0.0231421225984858,-0.0446975057107603,-0.0114189105055021,-0.0385050309260965,-0.413555451885618,-0.0161973794294218
291,291,0.158707637985204,-0.0261919209155587,0.898927169357249,-0.0254628693828471,-0.0484055199836282,-0.0100491990041333,-0.0284772654719262,-0.372568835761513,0.025098055502937
292,292,0.158305244887629,-0.0264662209384122,0.898830847387065,-0.027079410514802,-0.0509166731812928,-0.00822322540126776,-0.00578105091583832,-0.344225507083287,0.0425057655384851
293,293,0.157894656434012,-0.0267614175999665,0.898750946444458,-0.0284267704439208,-0.0530010484706711,-0.00616874753644564,-0.0599231743308392,-0.36739839978735,0.052914182377278
294,294,0.157506226030391,-0.0271091775437475,0.898694799987795,-0.0296427858985676,-0.0550098449045738,-0.00425806121793553,-0.00764451265668651,-0.38272933778538,0.0850482954593093
295,295,0.157170328341263,-0.0275411724079378,0.898669559669408,-0.0306686490890525,-0.0573739658953042,-0.00287218974770914,-0.0276765093878255,-0.400213519894089,0.102138745124573
296,296,0.156887151182906,-0.028063742528253,0.898690487925076,-0.031624184779073,-0.0605897071432504,-0.00204894600299215,-0.0107433606831354,-0.376434079797064,0.0628363078744072
297,297,0.15663644769211,-0.0286557260167457,0.898752893037541,-0.0324528528334976,-0.0644381927295799,-0.00159134844921406,0.0454811890640569,-0.353798693898594,0.0478143796529722
298,298,0.15641795881687,-0.0293075857296729,0.898833754481888,-0.0327834966857763,-0.0692989524419878,-0.00129014088122206,0.0747938595290142,-0.352208651984504,-0.0335882153182206
299,299,0.156231427854965,-0.0300098394119849,0.898909908008228,-0.032292308619167,-0.0740620040156684,-0.00103882824291249,0.0825741635205335,-0.340094088040575,-0.094239995323407
300,300,0.15607659853164,-0.0307530559348315,0.898958057568953,-0.031698720468867,-0.0784874391942948,-0.00100224850082105,0.134645151766779,-0.351895027394516,-0.0944862084094533
301,301,0.155965191212708,-0.0315431340191581,0.898973516304181,-0.0297496023619418,-0.0837222342088976,-0.00126901410750801,0.0917443578638188,-0.35665837642522,-0.107462451474553
302,302,0.155897360576409,-0.0323864550998059,0.898971510775513,-0.0271506174362998,-0.0894168952295763,-0.00180544312241408,0.0661123139468498,-0.368177220124268,-0.0947869901258856
303,303,0.155855510062261,-0.0332743135819161,0.898958652250623,-0.023826053610836,-0.0957211594277417,-0.00245566265680142,0.0186280522743447,-0.313635607134397,-0.0455881356382257
304,304,0.155822065449601,-0.0341979695743943,0.898941686134183,-0.0199209800727881,-0.101631810058111,-0.0031473290591471,0.0302051901763825,-0.357123964077634,-0.0549980701706932
305,305,0.155779483091783,-0.0351486524775438,0.898927482922757,-0.0167014519992306,-0.106823807169186,-0.00378066392523496,0.074388638681734,-0.401976797512447,-0.0208988597621553
306,306,0.155727142881611,-0.0361215436479649,0.898916269890803,-0.0138492476952933,-0.111578187021748,-0.00443433396691528,0.144378781418896,-0.384703918640274,-0.032630791410725
307,307,0.155676786002446,-0.0371224918709993,0.898903581764341,-0.0111032551557682,-0.116056171160238,-0.00507909684556898,0.126290936697467,-0.279315724625995,-0.0887784570693346
308,308,0.155629442706355,-0.0381586844956036,0.898889359003453,-0.0095013068383473,-0.119501986872861,-0.00561481367722238,0.137697825015846,-0.297100648748101,-0.0722184776362707
309,309,0.155586151318678,-0.039237281888146,0.898873548497319,-0.00782072452240272,-0.122346959600474,-0.0059930138947637,0.0775060344428528,-0.406752474325493,-0.0565254705474938
310,310,0.155547955972762,-0.0403654143066925,0.898856102833385,-0.00676935476606638,-0.124499623238473,-0.00607304288067003,0.0642132177458486,-0.450463503839371,0.0228786099598542
311,311,0.15551957025418,-0.0415469771039029,0.898844351523715,-0.00633117162355243,-0.126970596636839,-0.00553415177354854,0.063246579603206,-0.400234898423642,0.0971268352555376
312,312,0.155500430882937,-0.0427771312265126,0.89883851405968,-0.00608482334678084,-0.12932778048015,-0.00432404759833759,0.0453453950552963,-0.400010116516563,0.0867769644435816
313,313,0.155483607765224,-0.0440498878666342,0.898827840730709,-0.00561224511799313,-0.132241499916287,-0.003038508710135,-0.0175260126429756,-0.313682193250423,0.105542858176205
314,314,0.155462081898065,-0.0453592699029324,0.898801522027995,-0.00546694451630663,-0.134869375933122,-0.00187418394935123,-0.0773897206852483,-0.292986719406288,0.0572850097100321
315,315,0.155428744970033,-0.0466993165906891,0.89874868599701,-0.005833324874982,-0.13704044460038,-0.00136258042520827,-0.00190129700340354,-0.262541507304977,0.00849034246670447
316,316,0.15537347633969,-0.0480810467773361,0.898658280327356,-0.00705767745774473,-0.13891227316962,-0.00174240863774478,-0.0195706458784559,-0.263255008171714,-0.0429778934605407
317,317,0.155300942795457,-0.0495083108062464,0.898537639196938,-0.00946801865805294,-0.141617883325912,-0.00275475749763871,-0.00174957715602414,-0.146807749670829,-0.119167079478328
318,318,0.155226154205264,-0.0509645248490287,0.898403367484457,-0.0122682508730635,-0.144380714468817,-0.00394269404416834,0.00762505115238755,-0.120454793720954,-0.130723522241867
319,319,0.15516411991496,-0.0524332549611748,0.898271995550178,-0.0146684945883505,-0.145904590489743,-0.00488047628022218,0.107464395723141,-0.128361298108512,-0.0664862443764317
320,320,0.155129845206895,-0.0538982046542634,0.898159985155547,-0.0151756740157664,-0.146427532056217,-0.00507878328737059,0.140157024278072,-0.118849286990655,0.0608508772575381
321,321,0.155117138041093,-0.0553631301563374,0.898057681371444,-0.0133298836750275,-0.145336306000935,-0.00427858474401846,0.100309874118482,-0.121248858563986,0.206759598268522
322,322,0.155115903715299,-0.0568391652592255,0.897954069739576,-0.00916404024368666,-0.143473924536979,-0.00280476618129818,0.0868294344028979,-0.0299272556049247,0.260035747709382
323,323,0.155135304474257,-0.0583211145873355,0.897863476190164,-0.00321337358210668,-0.141002401480683,-0.00102880491194291,0.030398480778988,0.0426325372280797,0.245994317050454
324,324,0.155184528504425,-0.0598036918950317,0.897800167382131,0.00291204457178141,-0.138647517319539,0.000594779275444307,0.0474759564727218,0.10469980858766,0.15309633032526
325,325,0.155272789787196,-0.0612814930284583,0.897778366591772,0.00757117667275489,-0.136620498850222,0.00175548914882723,0.0514569086960213,0.104653610334175,0.114621346274799
326,326,0.155410605030618,-0.0627820642533277,0.897816924246911,0.0112446010405563,-0.135110202367801,0.00255660831032579,0.000899435338444032,0.14512975685225,0.0730601335039392
327,327,0.155591778052532,-0.0643088718195785,0.897906265977976,0.0144226412135284,-0.133274195284784,0.00329410598121547,-0.0525473492356826,0.0850789335629763,0.123028410372614
328,328,0.155800501147749,-0.0658202862489263,0.898017976585653,0.0165708760854065,-0.131662141455451,0.00375568469926925,0.0177410192127932,0.0808712806636966,0.142635624568467
329,329,0.156021007323341,-0.0672747262798013,0.89812364787934,0.0177996291721963,-0.130326553570606,0.00374289697682417,0.0943310033947355,0.122177746304652,0.181878340060988
330,330,0.156237569635956,-0.0686306953523923,0.898194859742931,0.0186136979804762,-0.127653025704995,0.00304630103822049,0.0627486271478311,0.139103661524695,0.0980455193625963
331,331,0.156448817093247,-0.0698578894077433,0.898231985474927,0.0189012226449564,-0.122447580499719,0.00135015612689356,0.0920458637866721,0.124885438962602,-0.0215308452865513
332,332,0.156665298749096,-0.0709837864383204,0.898254001786307,0.0190758633061126,-0.115857915802539,-0.001185290643515,0.0655826393561319,0.173943033715175,-0.0876285645474923
333,333,0.156889151131489,-0.0720537376235212,0.898260342933648,0.0188002215553699,-0.108459512931021,-0.00411257078629013,0.000147973914314363,0.207604260575411,-0.17006730160315
334,334,0.15712245390869,-0.0731132330201817,0.898250392361721,0.0182927473571899,-0.101892919028327,-0.00696262160990937,-0.0301623589806474,0.244404807759946,-0.222279577762992
335,335,0.157367242426724,-0.0742078958097378,0.898223485070673,0.0179758101747476,-0.0966756386122208,-0.00923378524704125,-0.0947118020109516,0.222514455882233,-0.2227843538863
336,336,0.157642928858058,-0.0753628902139236,0.898174964214898,0.0182933949018963,-0.0939819315981155,-0.010973926839907,-0.075899770643263,0.228598733201435,-0.216076988203315
337,337,0.157948094178674,-0.0765479903292388,0.898105176613085,0.0199385291339553,-0.0936199178991265,-0.0125637328980433,-0.00319822251195069,0.272086417438978,-0.150551341918184
338,338,0.1582535401439,-0.0777257746541353,0.898020991636353,0.0224802687716292,-0.0942021697623646,-0.0138591573658167,-0.045957976220341,0.24710494598188,-0.147943017453088
339,339,0.158530099636067,-0.0788587688152576,0.897929340009534,0.0242603603812062,-0.0948054777851622,-0.0147699031082917,0.0363165187918091,0.249230348757432,-0.0682268868510308
340,340,0.158748623764322,-0.0799094573904326,0.89783721746497,0.0253987684100687,-0.093936918845402,-0.0150636472863702,0.0283744409245513,0.15781168439518,-0.000660420296843192
341,341,0.15889006063399,-0.0808674386485357,0.897745979952881,0.0250748057706281,-0.0905368891433338,-0.0144303070057739,0.106039608527697,0.157699657470915,0.0688732411575955
342,342,0.158973898162927,-0.0817578288768169,0.897651125836981,0.0231750232028862,-0.0860005986441564,-0.0130649751287065,0.118893607377494,0.160470981711572,0.0925316182160177
343,343,0.159028774271337,-0.0825963068714492,0.897550898335259,0.0205377938114031,-0.0811814685550555,-0.0114429807232177,0.0926219693164262,0.154548713553513,0.118332131391392
344,344,0.159083292070978,-0.0833984595327617,0.897443486781135,0.0181779253775882,-0.0758898736825447,-0.00993069697208611,0.0756644988485362,0.169903868037593,0.0395635704872961
345,345,0.159166023909433,-0.0841797709315529,0.897327018639615,0.016813167726203,-0.0708972898242359,-0.00898444234810141,0.0798051620355706,0.182319092581502,0.0171111492190352
346,346,0.159268826297791,-0.0849411232322325,0.897194861300283,0.0162795894427899,-0.0668707081907539,-0.00882234012341315,0.0889277454967591,0.213425843093583,-0.0394400405173022
347,347,0.159372598947599,-0.0856721022066302,0.897048330175796,0.0166141126598874,-0.0643299226091943,-0.0091635121293102,0.0850837634089349,0.280556145902748,-0.0273401121147783
348,348,0.159489455311779,-0.0863711463636042,0.89689742771159,0.0172500495999063,-0.0621311665308621,-0.00970184422329922,0.0531071814940503,0.242015659497681,-0.000955146371436313
349,349,0.159631512697727,-0.0870366620164425,0.896752153552522,0.0176707800003089,-0.05990444837614,-0.0100984319760434,0.018547607106982,0.252098589832703,-0.00344488314409317
350,350,0.159810894262396,-0.0876670227410095,0.896622504724802,0.0179627862618609,-0.0573982633832423,-0.0100931554473966,0.0308979045477663,0.293081062029917,0.0366285394478384
351,351,0.160026384968587,-0.0882684955945502,0.896514168302697,0.0181018505816444,-0.0538845922313409,-0.00954973751605425,0.0526894542302455,0.294422126031113,0.0600450291792805
352,352,0.1602698558585,-0.0888419076382076,0.896420552071294,0.0182047257353961,-0.048905205906288,-0.00861720304418213,0.0512313694921559,0.288719256736429,0.0758322679265659
353,353,0.160543070445209,-0.0893775410092195,0.896333236317892,0.0182866747555643,-0.0430544461914717,-0.00749436394189117,0.0255259971008979,0.255359172022548,0.100515081387389
354,354,0.160847806249952,-0.0898658098693034,0.89624380372181,0.0188231686985541,-0.0375442920485633,-0.00637689078931378,0.125264863476377,0.281615941834323,0.101527707984174
355,355,0.161185853509075,-0.0902972624416577,0.896143839519617,0.0201160525790454,-0.0327843259847547,-0.00550667294030912,0.179401335945642,0.310809519446257,0.120825900706992
356,356,0.161570875698653,-0.0906651120263158,0.89603433344185,0.0227479738082645,-0.0283554719412341,-0.00480395842340682,0.174592104311934,0.275541226779418,0.0925698522478827
357,357,0.162001633754068,-0.0909756684979684,0.895921081472478,0.0256517666740061,-0.0245723727349403,-0.0042036132220134,0.184023062141015,0.273695424867642,0.136601389631301
358,358,0.16245760838344,-0.091239316796903,0.895802739365678,0.0288231952011348,-0.0215618934357885,-0.0036913062015859,0.1301273366177,0.320180126289847,0.113132533146859
359,359,0.162918335942378,-0.0914665674465126,0.89567776897683,0.0320411724092595,-0.0194536425897336,-0.00321776558576558,0.0506813337749604,0.331225515012936,0.107095621987366
360,360,0.163363407264589,-0.0916680434937728,0.89554444461588,0.0348068224622896,-0.0170903352847477,-0.00285382727321184,0.00133007697210179,0.262212016758763,0.109127422647707
361,361,0.16379520229147,-0.0918380210946336,0.895398070816937,0.0370788950970428,-0.0145184575400082,-0.00256753915347381,0.00696555176640514,0.270626131052888,0.137792447145996
362,362,0.164227411288063,-0.0919697510431012,0.895239572079787,0.038199131038159,-0.0123722317437765,-0.0023381318285204,0.0441418929194852,0.283311141851927,0.166625152347704
363,363,0.164656619256315,-0.0920722897022795,0.89507545645268,0.0390445841256474,-0.0102020217145423,-0.00215884429845931,0.0163931663082564,0.306209043627687,0.122939570417287
364,364,0.165079405997694,-0.0921545653182728,0.894912150144673,0.0395318327957964,-0.00785396895571042,-0.00201056644809503,0.0321670674558089,0.263159590805118,0.0440511296367743
365,365,0.165492349213852,-0.0922253904890306,0.894756013190087,0.0395627792016249,-0.00535336142337873,-0.00205827944996885,0.0335905548059136,0.22720563090131,0.0106149349703881
366,366,0.165904068523807,-0.0922925511604334,0.894605945878301,0.0396172571258357,-0.00338488996640438,-0.00247952814471652,0.0546471933370671,0.20389848047899,-0.00506499074142414
367,367,0.166316895421459,-0.092350174716913,0.8944573793134,0.0399254511229386,-0.00196096134580367,-0.00322702869728229,0.0204968908463875,0.216128209023287,0.00961392659477012
368,368,0.166717973613938,-0.0923864646231127,0.894311444366018,0.0399605997917374,-0.00106759000387451,-0.00407911838247996,-0.0166640466322373,0.215113352881654,-0.0183877588250625
369,369,0.167094445696745,-0.0923895714533858,0.894169286576768,0.0399115235771505,-0.000131438991762066,-0.00479936634236189,-0.0785907922214251,0.215146621985037,-0.00846407139074882
370,370,0.167433452284654,-0.0923476094409132,0.89403206717466,0.039132361898394,0.00132881347680411,-0.00516990052800141,-0.0633351443539187,0.219534184386015,0.0346142135814438
371,371,0.167735433612414,-0.0922464714026166,0.893898113990578,0.0378285623575228,0.00375607944981545,-0.00487905897120047,-0.0887320463099579,0.232119011420141,-0.00643006530723286
372,372,0.168008997672968,-0.092093998855294,0.893766498139789,0.0356150951248425,0.00739931410466115,-0.00416634306284403,-0.0884853871575167,0.208098816718244,0.0740403572486538
373,373,0.16825352728792,-0.0919112354834328,0.893639537841526,0.0330482042648499,0.0112647496542667,-0.00329281849193931,-0.0501379572271957,0.272863029398344,0.116620425777826
374,374,0.168468394918507,-0.091719244148616,0.893519578904573,0.0301332673151432,0.0153868099080277,-0.00257215320950716,-0.0718593772294394,0.279545796153719,0.0780786445630333
375,375,0.168652965175867,-0.0915390942112522,0.89340898362217,0.027315072706597,0.0185076212648378,-0.00234013290846847,-0.136530123579637,0.298230674348132,0.0419567718977805
376,376,0.168807267061419,-0.0913728506000442,0.89330192587107,0.0241857049642203,0.0211143495499312,-0.00277708261341231,-0.169204910767569,0.29196888267275,-0.0174464087427637
377,377,0.168931722025993,-0.0912065047809742,0.893196863545914,0.0207333218903878,0.022783933760882,-0.0037099851757231,-0.158075570247646,0.268935793068952,-0.0725683166237239
378,378,0.169026278116044,-0.0910369979189813,0.893102587120879,0.0176399600105685,0.0244727995487542,-0.00483993313611362,-0.190970114862306,0.204877934262275,-0.109193016165184
379,379,0.169090880024174,-0.090861241748055,0.893027867223101,0.0147503789458521,0.0264924416915545,-0.00571113000053691,-0.158008223582122,0.16681339213134,-0.145752345290624
380,380,0.169125470766962,-0.090676113877295,0.892981446431815,0.0119857485160578,0.0284433038041843,-0.00606449629150301,-0.212532834974467,0.154962881530109,-0.149078980026983
381,381,0.169128359259245,-0.0904803756015686,0.892969999592005,0.00850332017753286,0.0299187629134898,-0.00582190955056725,-0.224748555950902,0.191705986520419,-0.0732201956668047
382,382,0.169099575493372,-0.090276058739974,0.892987732169016,0.00442645483143126,0.0309997901995542,-0.00519168191843697,-0.216258871407151,0.214113816720402,-0.0495146595417036
383,383,0.169041648401216,-0.0900649463626458,0.893024665339907,-0.000398763596319001,0.0319985011653847,-0.00436371815904128,-0.139916401077876,0.235146139660157,0.012532972994846
384,384,0.168957107298128,-0.0898488563166382,0.893070822455773,-0.00546676105612162,0.0332352634652661,-0.00353009990185943,-0.0683509880082549,0.275586314483974,0.00958287417436535
385,385,0.168848480997522,-0.089629643508296,0.893116227133756,-0.00970652235622823,0.0347234209898652,-0.00286180373459364,-0.047639622173223,0.274038975774675,0.00818552076140903
386,386,0.168711186764026,-0.0894160256940397,0.893164673703049,-0.0129718976180684,0.0360169106054863,-0.00249948724660282,-0.0366956670360244,0.251193226621908,-0.00438430061207241
387,387,0.168543537560634,-0.0892068153843869,0.893222869866887,-0.0153451937140994,0.0367847890567175,-0.00221042678255247,-0.0685188608547499,0.29708888471424,-0.0465910943728383
388,388,0.168352406815784,-0.088989027240474,0.89328521641218,-0.0179237584869367,0.0369731515326828,-0.00191277746269225,-0.0405785205133588,0.312987595692476,-0.0509380428515937
389,389,0.168144667881113,-0.0887496593819358,0.893346124924236,-0.0205782025327222,0.0370540587257825,-0.00158502132773751,-0.0490338858552079,0.310064097401924,-0.0639218464676215
390,390,0.167927190931371,-0.088475690629728,0.893400021690986,-0.0229743320397081,0.037761652177018,-0.00113090663154865,-0.0756625066632251,0.282700879203908,-0.118592195716718
391,391,0.167708152642048,-0.0881683847522038,0.893445085367279,-0.0249728557332387,0.0387887170287932,-0.000580108611014542,-0.0971427414912806,0.251867629685627,-0.0709375596384784
392,392,0.16748295922764,-0.0878364296078094,0.893485152825682,-0.0264549731489598,0.039971457885306,-1.78356834387251e-05,-0.0779917432575342,0.280240292737747,0.00462293717839647
393,393,0.167239316720441,-0.0874779120923496,0.893523149482266,-0.0270692766868539,0.0415446957934301,0.000604800961575367,-0.119642592131638,0.308618655651712,-0.00978843994858446
394,394,0.166964929077363,-0.0870909061925781,0.893561991120779,-0.0278319766200733,0.0437811861068609,0.00117697401134486,-0.0533185499780317,0.311537382915883,0.0145684468628466
395,395,0.166647500125378,-0.0866734739429343,0.893604583215806,-0.0286867065987232,0.0462991549201903,0.00161676466819425,-0.0469921451888126,0.373529776609793,-0.00093614394792452
396,396,0.166278107177503,-0.0862285896724766,0.893649776528327,-0.0299105566272205,0.0486022356089615,0.00183489928887078,-0.0332680589975585,0.322100600103931,0.00344670730318124
397,397,0.165864915063892,-0.0857574996548255,0.893695772386357,-0.0323498583840721,0.0509829989941382,0.0019379068108688,-0.0265516500029428,0.341087142367936,-0.00521710422166138
398,398,0.165421263601555,-0.0852556753653584,0.893744504535118,-0.0348400120983485,0.0534653721019779,0.00195681086418066,-0.015897554905827,0.326727376931351,-0.027591294091256
399,399,0.164960497449249,-0.0847186036115652,0.893797912606216,-0.0371989043159182,0.0564182833795072,0.00180573876602043,-0.0772838114327775,0.290196506638606,-0.0561734228141217
400,400,0.164495966324362,-0.0841417869114736,0.893857941488678,-0.0397019478822579,0.0601981743315027,0.0014617770022298,-0.0842881815814015,0.321909845510466,-0.0414494519638194
401,401,0.164008589241723,-0.0835224179105897,0.893926056260011,-0.0420482568285368,0.0644832724463789,0.000598138387583008,-0.0878534356823505,0.283982071225327,-0.112223739922677
402,402,0.163489429518693,-0.082863454443688,0.894001272658133,-0.044625625947933,0.0684860366889013,-0.000890269388658321,-0.0708461772670384,0.333578690876057,-0.0866094270617047
403,403,0.162967077752065,-0.082169093061651,0.894081691261417,-0.0470973666070805,0.0729199300858808,-0.0023765998525476,-0.0847724305367404,0.345329011545768,-0.103083457041146
404,404,0.162470152416574,-0.0814435820780166,0.894165161203758,-0.0493097922165477,0.0776565441984583,-0.00332835462974485,-0.131203951222218,0.308970174334169,-0.089425206813311
405,405,0.162027299220944,-0.0806912174504643,0.894249288766076,-0.0511303856859664,0.0819771470968777,-0.00331468867120498,-0.148728908345404,0.323406158707626,-0.0691610157077004
406,406,0.161659381041211,-0.0799063158433354,0.894321475468008,-0.0523976855278021,0.0864740003135109,-0.00228254534800038,-0.0992686547908804,0.210920996458813,-0.0530611173994012
407,407,0.161347330673115,-0.0790860878348216,0.894383013458502,-0.0531888161051697,0.0901195272596853,-0.000658608260518253,-0.0485252092703129,0.248853069829308,-0.00418176372918318
408,408,0.161059919677312,-0.0782391716227877,0.894452284153174,-0.0533086920094482,0.0923515412967637,0.00136999456110565,-0.0513891218500713,0.294027956096034,0.134454338391913
409,409,0.160765922301673,-0.0773741800514619,0.894547777570142,-0.0524558884436087,0.0944016222157651,0.0037192311535027,-0.0849357609146878,0.252058349483464,0.231133167892282
410,410,0.160434115317441,-0.0764997027899979,0.894688079729363,-0.0514212487320143,0.0963413048642099,0.00619200613324384,-0.0769077925649331,0.303347117804366,0.272626397698187
411,411,0.160050118116302,-0.0756121749329471,0.89488371526668,-0.0503844367637967,0.0979622597309228,0.00922990884138175,-0.0220995698218988,0.343843659097937,0.334677621845273
412,412,0.159634785943251,-0.0747058269482532,0.895122344668655,-0.0500196804641831,0.098661499427959,0.0129734414669243,0.0743106336334026,0.371223461431854,0.377694479705249
413,413,0.159209742102775,-0.073785941296644,0.895388312315872,-0.0491173425269085,0.099348224071798,0.0168310883281349,0.0492403065367078,0.39108105451005,0.324298085343638
414,414,0.1587965973554,-0.072857834326918,0.895665935311026,-0.0481942140908235,0.100475915206646,0.0202383722815691,0.055149350267246,0.409169015809915,0.234340974241098
415,415,0.158416949244293,-0.0719268618977342,0.895939504399038,-0.0476441976440182,0.102243108289452,0.0224472645142985,0.0557903925833488,0.364558478539703,0.0983916342884218
416,416,0.15808803899013,-0.0710016303013124,0.896215196118955,-0.0467272422585508,0.104331673190831,0.0229562593386003,0.104625413324623,0.387947645175414,-0.00566587615471116
417,417,0.157795479120977,-0.0700786430842769,0.896503468859035,-0.0445215996421448,0.106308255369662,0.0222919198065838,0.0835067839846357,0.378389573075648,-0.0294176518481333
418,418,0.157513401958449,-0.0691450858753117,0.896795037929151,-0.0413381840620662,0.108347303635889,0.0209039795885988,0.0328729356570991,0.380717637123428,-0.121471933683364
419,419,0.157215927633796,-0.0681880765357259,0.897080640494104,-0.0387602869612473,0.110377305668965,0.0191508245121572,-0.00201267282048226,0.430927245445747,-0.141935658203561
420,420,0.156877165347385,-0.0671946634002028,0.897351034975661,-0.0374372080753783,0.111408473500081,0.0174523466074667,0.0315275241434705,0.447414764282066,-0.151701065896917
421,421,0.156485087662162,-0.0661751739939502,0.897614628383215,-0.0371573952841123,0.112819965420669,0.0157969648181312,0.0320593824727052,0.3836257222962,-0.187297190878624
422,422,0.156056906671528,-0.0651381187284274,0.897877656686862,-0.037973026751948,0.114647072210873,0.0139179410615727,0.0116663989448063,0.275987781549659,-0.221986179634349
423,423,0.155610614716762,-0.0640678174962881,0.89812761796799,-0.0397382867449475,0.116253983640957,0.01201660024144,0.0300600362497275,0.250042067113066,-0.224142063436924
424,424,0.155164249278058,-0.0629486559724002,0.898351978815137,-0.0410314445285393,0.118007327136187,0.0102514363565727,-0.0294603428879959,0.179605357613937,-0.181194923346609
425,425,0.154735891360337,-0.0617650798845162,0.898538174331639,-0.0405586274326134,0.119774218565203,0.00885082264780427,-0.0632090864067371,0.0767697543325176,-0.138951126099588
426,426,0.154339264945759,-0.0604894231345783,0.898675567305624,-0.0395434103526839,0.121449104633236,0.00774691771807156,-0.00172850656485968,0.0136387282720886,-0.0838298103898477
427,427,0.153962395829267,-0.0591320889817352,0.898772518550463,-0.0372099237531908,0.123686974165957,0.00684877355419607,-0.0683833496556079,-0.0250045065981643,-0.0493787678354565
428,428,0.153584822978602,-0.0577346414880363,0.898844976419823,-0.0340596271358012,0.126321609456696,0.00610934843733496,-0.0911470056727009,-0.0784543049170707,-0.00296235603169927
429,429,0.153186053089787,-0.0563386162866696,0.898908941940187,-0.0319509342099648,0.128336774521157,0.00546794091519216,-0.0557211910039274,-0.115098349873315,0.0103080633006468
430,430,0.152745562609111,-0.0549855226756542,0.898980472632134,-0.0307992689220984,0.128845198743084,0.0048294232937574,-0.0480350520486821,-0.162895238117941,0.0584210256745954
431,431,0.1522264709204,-0.0536725523796182,0.899064417158496,-0.0320710314450917,0.126727081068889,0.00430519633131859,0.0183792716388051,-0.114239774633485,0.0534820840049755
432,432,0.15164247370955,-0.0523719265676183,0.899150268518117,-0.0359745449098671,0.122217956470978,0.00397820215184769,0.107570354963316,-0.0514635586014767,0.0531527495780771
433,433,0.151048861888292,-0.0510877279118553,0.899231026929894,-0.0408126804882425,0.117057640463681,0.00372718098308608,0.129312732453785,-0.0886607421442401,-0.00677007572165659
434,434,0.150500890836321,-0.0498241151318661,0.899299586507262,-0.0452431620727107,0.112005716198982,0.00342614697012061,0.212108256095997,-0.135547081251329,-0.0456365428706833
435,435,0.150053781556577,-0.0485853202108612,0.899348733108083,-0.0477124549837665,0.108840226686346,0.00294939624491472,0.190754467936274,-0.210817852342435,-0.0349518073969323
436,436,0.149732653605479,-0.0473783291072053,0.899375963356233,-0.0464603680875808,0.107168764120388,0.00210960569215412,0.0888134530021808,-0.299887685177452,-0.0279729904783109
437,437,0.149500604685998,-0.0462003322970827,0.899386130945686,-0.0417668983922745,0.106021456584629,0.00097572799264064,0.0468952303643114,-0.278584501484319,-0.0248371040514622
438,438,0.149319818822545,-0.0450409500965474,0.899382873977058,-0.0349060758410179,0.104956556559711,-0.000250566549314754,0.00750326075979971,-0.286322299595764,-0.0578365326941123
439,439,0.149152502783588,-0.0438898645122446,0.89936966358047,-0.0277063770809862,0.103617356953702,-0.00132313544886227,-0.0673232192064127,-0.238160063596827,-0.0178008129474815
440,440,0.148960883950544,-0.0427368440595257,0.89934983472392,-0.0215159714262204,0.102083958025188,-0.00201208821761896,-0.0499032106211389,-0.194989845805419,-0.0348084123059575
441,441,0.148738317718508,-0.0415775996858996,0.899321761006961,-0.0171061185131263,0.100287486790823,-0.00225543703156456,0.01688042805231,-0.211949275880006,0.0394180312525099
442,442,0.148509944523046,-0.0404191918919222,0.899282992347356,-0.0131462939688617,0.0981071307728269,-0.00218705444812963,-0.0168427896200323,-0.19838908470288,0.0547171244808947
443,443,0.148285709997549,-0.0392684948704787,0.899235634181441,-0.0109718545029142,0.0960837963255156,-0.00183655827888507,0.00599416728331697,-0.178009322211473,0.10765610368386
444,444,0.148075595078196,-0.0381323486853615,0.89918184488122,-0.00935968958335396,0.094183444632475,-0.00125383701476434,0.0277538735894038,-0.205293294394868,0.107774902993187
445,445,0.147889617712672,-0.0370175367977529,0.899123815036879,-0.00825279758709732,0.0922298754718942,-0.000503621726210404,0.129424000086835,-0.218230205662414,0.118993574501385
446,446,0.147721763879388,-0.035914028249735,0.899047090086576,-0.00775179264547682,0.0904848163376248,0.000557555013807345,0.207672073437192,-0.285533072336597,0.191674756422821
447,447,0.147565387897819,-0.0348175555883889,0.898950254034911,-0.00767039418082097,0.0890946080657825,0.00200008430238336,0.236170004689589,-0.315303296226302,0.187569721953044
448,448,0.147429604551472,-0.0337434023417083,0.898855113145688,-0.00762291889614779,0.0879436004456878,0.00358433274220779,0.213801255564668,-0.355516311360506,0.217023519956544
449,449,0.147323545872212,-0.0327067322922178,0.898783511262702,-0.00747869498516656,0.0868053685593737,0.00504386248928279,0.153284461736069,-0.339022679177504,0.215159796163241
450,450,0.147256354715836,-0.0317225895533409,0.898757326432063,-0.00712487683225641,0.0845649047628044,0.00621026283197974,0.106210832194771,-0.302951130173278,0.225550028424562
451,451,0.147250792801203,-0.0307954849857747,0.898786501893838,-0.00672664147629376,0.081710067197983,0.00693016721772226,0.0546620664792698,-0.235666641244464,0.145029537836078
452,452,0.147300848038477,-0.029915348268226,0.898856682825958,-0.00635117266918208,0.0790864926284592,0.00730005085552363,0.0436270160566106,-0.225313380953962,0.119431714897975
453,453,0.147372464135447,-0.0290751729605076,0.898953335414416,-0.00566543025238284,0.0762393051216467,0.00758091366526059,0.0735622939788786,-0.175746484875254,0.0532594754207976
454,454,0.147431535695501,-0.028267829021079,0.899061918610845,-0.0045179709518471,0.0740673448300319,0.00783634565488179,0.121859105964226,-0.180745054916464,0.0733088268912728
455,455,0.147443918503328,-0.0274860564873156,0.899167886848489,-0.00328554864191746,0.0720265611484381,0.00849680161039366,0.130743038288576,-0.197252666569422,0.153708287977583
456,456,0.14739859200105,-0.0267283970786981,0.899272456999854,-0.0016511559996125,0.0694755489243205,0.00978935404901259,0.123490709531278,-0.126427745273686,0.18735939396437
457,457,0.147318258775814,-0.0259992240843621,0.899385731728144,0.000157961172427741,0.0660186631436056,0.0115051573442603,0.189042092746776,-0.160412705708974,0.184635288461107
458,458,0.147219347841457,-0.025300008328199,0.89950634510758,0.002196456651748,0.0614396213465199,0.0133635896908898,0.183074785378726,-0.184843060893224,0.177056503867848
459,459,0.147118304960703,-0.024632342745177,0.899632705207085,0.0044298531869904,0.0573965465619835,0.0149470958369111,0.0950179300815152,-0.348345913668111,0.165773097176439
460,460,0.147031590555291,-0.023997952997947,0.899762985419906,0.00700171036456266,0.054467158118663,0.0159783323716605,0.0324624137678096,-0.466215893649099,0.156920889988327
461,461,0.14695213848685,-0.0233917639206075,0.899902272135131,0.0102093851649285,0.0519105678529294,0.0164167619110386,-0.0611603170703977,-0.513132534527741,0.140870541223392
462,462,0.146868941125559,-0.022812288563366,0.90005177060154,0.0136869888120009,0.0486031924922216,0.0165002582072222,-0.0883487797229656,-0.536776412932989,0.156728938206152
463,463,0.14679258747281,-0.0222669487021548,0.900203506187961,0.017482095528646,0.044817473691895,0.0162612120068242,-0.0832075942895032,-0.437520954954457,0.0843905236488402
464,464,0.146733714593197,-0.0217634555301446,0.900349299835876,0.0214955602932214,0.0415445558271309,0.0155658447886728,-0.0587686355624307,-0.37610331492333,0.0100574757240231
465,465,0.146703000037967,-0.0213097889382633,0.900480785017655,0.0249339314192598,0.0388577315717626,0.0144082641501726,-0.0172221964312003,-0.354170100052159,-0.0432236581347042
466,466,0.146707087475198,-0.0209087480942362,0.900607267309388,0.0282958174000432,0.0374263576582885,0.0126026146988687,-0.0313998369257857,-0.348236228284003,-0.106911275724862
467,467,0.146738913277149,-0.0205553465166406,0.900733919397232,0.0316523509670523,0.0373812775977891,0.0101411108225471,-0.0198920501412134,-0.397518389773617,-0.145969594606399
468,468,0.146788605264284,-0.0202460109204157,0.900845993742076,0.0346537765585317,0.0368029514727558,0.00743824991637512,0.0232915869523218,-0.372441821609673,-0.145837128783152
469,469,0.146846287262736,-0.0199771105802949,0.900928674640895,0.0371432457602529,0.0359437595124798,0.00494372818598877,0.0126230292756388,-0.347357396580456,-0.186358060427613
470,470,0.146902082979174,-0.0197449652252836,0.900967098763724,0.0392852576316772,0.0339796014507339,0.00296504839975179,0.0329027287088505,-0.306205325553846,-0.179202505298812
471,471,0.146961961406153,-0.0195509320842905,0.900939309206193,0.0410110930355642,0.0307731858499653,0.00152726589261801,0.0455272973216886,-0.265403315329648,-0.171810074550668
472,472,0.147032499526773,-0.0193975622920392,0.900854838658204,0.0426645752486041,0.0274586634485991,0.000393624972277758,0.0258095524377128,-0.330344363521011,-0.180323117228397
473,473,0.147104739163449,-0.01928288331605,0.900746053068714,0.0440755965599535,0.0237709080613044,-0.000505960478701749,0.0721232337754175,-0.332468949973005,-0.158795353641697
474,474,0.147169736271825,-0.0192048701646226,0.900645334451668,0.0443741105066309,0.0194526583605256,-0.00117926116057034,0.125780068191559,-0.339429061645352,-0.118010967885819
475,475,0.147218566210062,-0.0191614701448493,0.90058508446849,0.0439264613099749,0.0147545718774051,-0.00176174467482462,0.143911272840956,-0.337211460970753,-0.114146385086995
476,476,0.147250384359412,-0.0191489670885836,0.900562939401549,0.0428738426848986,0.00930739901326286,-0.00211332883079094,0.0920050904450792,-0.419379824393442,-0.11808416551895
477,477,0.147271158111667,-0.0191686997432738,0.900557219388499,0.0408793162072074,0.00346857022300872,-0.00223923152399324,0.0914170127343512,-0.420592264000301,-0.109676177307183
478,478,0.147282193719724,-0.0192262030569457,0.900571405923547,0.0378609030293759,-0.00336903867827436,-0.00220815449150364,0.0492269011760983,-0.381366508270924,-0.104097371666437
479,479,0.147284790652006,-0.0193270138967041,0.900609014323758,0.0339993534793764,-0.00977726100350723,-0.00213252912404924,0.0633166330959758,-0.413280466630012,-0.112147103695262
480,480,0.147280239903729,-0.0194766625124186,0.900673582816149,0.0292490152534269,-0.0150922069089899,-0.00219321284524771,0.0347321804523006,-0.407552974174042,-0.119665592150862
481,481,0.147265430623489,-0.0196778521859665,0.900788647628122,0.0233757640393879,-0.0198477854810781,-0.00238541561888505,0.107397161127332,-0.417705126336015,-0.0907024789443949
482,482,0.147239505274718,-0.0199269182119429,0.900952061393268,0.0164081707730452,-0.0241266449703913,-0.00256074915929933,0.0581489643914318,-0.339979272895284,-0.0973368869521202
483,483,0.147207123053892,-0.0202198199708199,0.901128891946172,0.00913700354769791,-0.0281622766988392,-0.00283888855274282,0.0635094383639033,-0.355056240907433,-0.0904821158191988
484,484,0.147172934326365,-0.0205524962202823,0.901284274569599,0.00251899714420844,-0.0321147408646876,-0.00306758519527518,0.033259428227113,-0.319815440114703,-0.163422107277964
485,485,0.147141575475163,-0.0209208605840526,0.901383428299071,-0.00404468629253467,-0.0361132198195192,-0.00333124337476293,0.0889608506929742,-0.370932675161125,-0.157598105627157
486,486,0.147099183802898,-0.021323136047943,0.901421272260891,-0.0104417366584392,-0.0405774605222604,-0.00362484368656558,0.111395781756391,-0.372409041000999,-0.117135244517209
487,487,0.147042615338216,-0.0217620305805753,0.901421741390042,-0.0173106350262727,-0.0455694726435898,-0.00371981486985652,0.065758209131374,-0.374407879334228,-0.0899225528307957
488,488,0.146992571386341,-0.0222401450726595,0.901393532091781,-0.0235070961939891,-0.0502976807579205,-0.00374045757717519,0.0595687732888403,-0.402331516423974,-0.102540686424818
489,489,0.146969761655975,-0.0227600424995214,0.901345129531073,-0.0288868819874317,-0.0548936017976997,-0.00383887738841353,0.0381552074212515,-0.432165176824841,-0.0358095205120942
490,490,0.146994910754696,-0.0233242484021602,0.901284765554976,-0.0319983591804067,-0.0588932017729398,-0.0040547026879067,0.0199719946515473,-0.383410904041802,-0.0413364131102435
491,491,0.14708543257148,-0.0239302600155955,0.90121530558479,-0.0329509869290287,-0.0631083350681761,-0.00439541098211482,0.0421526671234837,-0.376709957111102,-0.0294403798214744
492,492,0.147227435071293,-0.024576187950659,0.901131831488355,-0.0318008614927844,-0.0681816866221678,-0.00469431054723858,0.084254574439467,-0.256462040250278,-0.00423757691109909
493,493,0.147394729667376,-0.0252655905519889,0.901030415881328,-0.0295198290215343,-0.0737639288919466,-0.0050370876415383,0.0761701770907934,-0.270317196046503,-0.00582602623629812
494,494,0.147561172224351,-0.0260022186065876,0.90090673007009,-0.0282167414729329,-0.080198318342475,-0.00548732171986115,0.0896933989423917,-0.216355157795355,-0.00338805710708287
495,495,0.147700668590817,-0.0267900076674419,0.900756044015682,-0.0281055901431426,-0.0868532879384021,-0.00616479261198919,0.126979940975916,-0.17976385655568,-0.0393523615342958
496,496,0.147811347739429,-0.0276255977875823,0.900578518647333,-0.0294215499265617,-0.0932934995617499,-0.00739059523555362,0.0668618500667501,-0.234448950051972,-0.112448654552753
497,497,0.147910652801384,-0.0285066598822691,0.900376963661583,-0.0318398896624365,-0.0993239052058322,-0.00910805400329663,0.0613518796740262,-0.447926365036609,-0.131137336915482
498,498,0.148001505610226,-0.0294387113429977,0.900150268727878,-0.0344591672916877,-0.105610631087202,-0.0109131796637406,0.0449849824775713,-0.543642092153908,-0.17952144449689
499,499,0.14808683257997,-0.0304271531385473,0.899897233359024,-0.0375967405407473,-0.111666566133406,-0.0124989935179289,0.0981737537676534,-0.587089461536169,-0.141017388301411
500,500,0.1481695633796,-0.0314772715472727,0.899616589962925,-0.0402233791100944,-0.116905818506659,-0.0137052585348688,0.0948780966507548,-0.516479618952876,-0.117842458308993
501,501,0.148248674712427,-0.032605553492689,0.899273978973499,-0.0408479711825589,-0.120761999626561,-0.0142948133273735,0.122331171358358,-0.484859593970781,-0.0222931606692412
502,502,0.148322265577326,-0.0338084691485149,0.898869708156237,-0.0392109920411296,-0.123202786155212,-0.0144492359061237,0.0471374096506111,-0.430968782136766,0.0283568459208046
503,503,0.148391972101825,-0.0350611376658474,0.898454681438192,-0.035934383714963,-0.124774516018458,-0.0142339096199964,0.0296893748998683,-0.255183291283165,0.0195434652388835
504,504,0.148459465827665,-0.0363385952301521,0.898080002192058,-0.0310812281062892,-0.126420962602046,-0.014036548658911,0.0246369651532993,-0.13153554906075,-0.0738244685879547
505,505,0.148526456332189,-0.0376157988275103,0.897796939908139,-0.0260584792694982,-0.128016659819722,-0.0141229375334399,0.108902757620172,-0.144813574445284,-0.133005359180053
506,506,0.148589431208778,-0.0389082145016439,0.897616969662508,-0.0220385962812488,-0.130371150106242,-0.0147238487970818,0.160129881544874,-0.102330003877342,-0.212330486902666
507,507,0.148647462241464,-0.0402322525883579,0.897506138655567,-0.0189050962240954,-0.13250649560235,-0.0156646802491088,0.306205574709676,-0.0941563448788096,-0.299876672778413
508,508,0.148706062901347,-0.041564304396102,0.897447520610954,-0.0159763156197806,-0.13360913444993,-0.0164283258272625,0.341424128442114,-0.139702802227655,-0.212652187833019
509,509,0.148770601831991,-0.0428808698708049,0.897423933175192,-0.0128478919348543,-0.134338582133384,-0.0164644878165699,0.242305876778339,-0.262898301900253,-0.0782765531584346
510,510,0.148846302349076,-0.0441585635753661,0.897417957888333,-0.008713326529475,-0.135009503767521,-0.0151767798348552,0.151933521962274,-0.347100247179572,0.149433151187444
511,511,0.148927340551123,-0.0453822630297474,0.897441123453035,-0.00329142197746293,-0.135090226889558,-0.0115810656433487,0.181487495586078,-0.300993136188396,0.372541235678907
512,512,0.149010058301819,-0.0465674971881557,0.897504661688346,0.00286180204290584,-0.133139226869897,-0.00606328032082571,0.224065105640766,-0.226283791853087,0.524612164282185
513,513,0.149102893044947,-0.0477370658911466,0.897590617880464,0.00849788015614808,-0.129546433524968,5.82140380306746e-05,0.265795848056735,-0.0877589490364536,0.498896723201854
514,514,0.149214369486029,-0.0489138963368659,0.897681108671278,0.0132387018380405,-0.125982614497858,0.00520749591885816,0.254366955443121,0.0487222706049703,0.305879078108084
515,515,0.149353075374994,-0.0501210115135092,0.897758327576005,0.0167151264562596,-0.123106374996778,0.00804340379661301,0.253801796428572,0.119516467439418,0.160194971544835
516,516,0.149531329826606,-0.0513661112346379,0.897825895737208,0.0191432895294301,-0.121846340276876,0.00810184379106798,0.208053345159292,0.149946027793959,-0.0285363285436351
517,517,0.149743356930828,-0.0526340878811821,0.897895653930086,0.0213490685160655,-0.12168342255405,0.00626000044697924,0.193339314199708,0.0733023183822707,-0.129062199241132
518,518,0.149970620423651,-0.0539137556990986,0.897962186088535,0.0227881512343728,-0.121997966091432,0.00338002539299018,0.207537001571179,0.0690925883050983,-0.163850297609245
519,519,0.150194610931873,-0.0551938723820832,0.898020046612347,0.0242285663414117,-0.122439551788794,0.000277568775598881,0.124157273953251,0.0349284611640854,-0.262816908709796
520,520,0.150396865239701,-0.0564631601529788,0.898063744278217,0.0257437016377425,-0.122755224508067,-0.0022737721662953,0.0577747453191607,0.0436457557533022,-0.250231202127178
521,521,0.150558863641675,-0.0577312396875738,0.898089272852367,0.0263474244123577,-0.122831918123426,-0.00428047174681578,0.0361873739368269,0.0323580685949994,-0.226816162881615
522,522,0.150692837241567,-0.0590056753247571,0.898100295650731,0.025504348866532,-0.123840990597792,-0.00621779852255117,0.0650209140990916,0.0481410712999591,-0.262509883164433
523,523,0.150826525003191,-0.0602720404498375,0.898102776689362,0.0234965954141208,-0.124585543272423,-0.00816127497706311,0.110224228497565,0.0383312674812525,-0.175800960409147
524,524,0.150987717342529,-0.0615158534126262,0.89810265723228,0.0225021114626988,-0.125508684191741,-0.00979948014207905,0.0824069964319667,0.0836540286144491,-0.0798868576106132
525,525,0.151204253797898,-0.0627225809703984,0.898105850074084,0.0219992457009647,-0.12547977934814,-0.0108740717202031,0.0866397232157186,0.0752118224220076,0.0209458631291821
526,526,0.151484053885252,-0.063882173531343,0.898119233325474,0.0226170864777368,-0.123807946135396,-0.0111693230501239,0.0792625825848253,0.167709943047767,0.0766583672517651
527,527,0.151808618640234,-0.0650042016870458,0.89813881052244,0.0238796881468377,-0.120494707997076,-0.0107911224479112,0.0462585813672288,0.202122334284678,0.0548548850522356
528,528,0.1521661734799,-0.0661035545486879,0.898154206675695,0.0254566876294847,-0.116822700577867,-0.0101179658623344,0.10639742033459,0.256892577606798,0.0708898616514849
529,529,0.152544921065181,-0.0671951585220889,0.898155103124313,0.0275726261542214,-0.11305707168262,-0.00952412247002175,0.132032494047853,0.24712700873264,0.0137495401571935
530,530,0.152933043661781,-0.0682939760032561,0.898131238736768,0.0299187023724429,-0.110473907681392,-0.00942118885606613,0.15720519522493,0.217369993630687,-0.0439835323678459
531,531,0.153342367091478,-0.069407047691947,0.898084136268069,0.0328378006441345,-0.109314154420072,-0.00992370952079242,0.140386636521941,0.224795763953644,-0.0719425242455397
532,532,0.153780768345284,-0.0705243849401671,0.898020769296116,0.0365806085340472,-0.108150249753274,-0.0107851657617304,0.0583541121194737,0.0732378151421203,-0.0978423398405756
533,533,0.154230486645916,-0.0716354378194695,0.897939074783059,0.0402221112950242,-0.107434479076234,-0.0117766755223699,-0.00176655365557287,0.0266637371876209,-0.0541777078549275
534,534,0.15467375357527,-0.0727296594107287,0.897836950787608,0.0436668035520732,-0.106754054381357,-0.012779958885037,-0.029038098897518,-0.0361679296070745,-0.00243292601336838
535,535,0.155092793229969,-0.0737965060573821,0.897712254960873,0.0467581028288279,-0.106223475019088,-0.0135154864039328,0.0081020539617132,-0.00634346930682955,0.0503232295338986
536,536,0.155466005625559,-0.0748265898240051,0.897554413319581,0.0476952068747454,-0.10582800577485,-0.0139646168229222,0.00974577308447601,0.0447573785285365,0.0988667767832136
537,537,0.155805237693075,-0.0758269371244254,0.897364902422247,0.0469000586638903,-0.10486532993898,-0.0142317152905602,0.0305378380687458,0.103814750465516,0.0850644839589639
538,538,0.156142863572895,-0.0768116317457195,0.897159633831176,0.0455103004202249,-0.102086690958628,-0.0143194329195416,-0.0197882701781077,0.0344894017649382,0.0357875044518671
539,539,0.156511236142774,-0.0777947596244261,0.896954525443475,0.0441901668007346,-0.0992295455249136,-0.0142940892968397,-0.0846637734279555,0.0414912678413573,-0.0351443667195041
540,540,0.156942685014131,-0.0787904095408846,0.896765499956611,0.0435840335861712,-0.0969974519262938,-0.0142429779320294,-0.12381835511807,-0.00367293664016455,-0.0460618246186464
541,541,0.157471970139661,-0.0798189914114965,0.896596683348671,0.0442006939423489,-0.0967000797442511,-0.0141847943462258,-0.0318104281579943,0.0109706140204397,-0.0546238349661195
542,542,0.1580774529248,-0.0808711495089127,0.896437471949045,0.0462859837284645,-0.0974937709791104,-0.0140845152939592,-0.0320102211881972,0.0137397106964778,-0.0238237090942599
543,543,0.158706875389855,-0.0819162947750907,0.896281786501429,0.0485096302505001,-0.0983234097813258,-0.0138440742750567,-0.0226139821815299,-0.044356876345342,0.0770088364240653
544,544,0.1593080234966,-0.0829237878758245,0.896123669923413,0.0510553267131038,-0.0988868852997125,-0.0134619008475946,-0.0773567898051264,-0.00474194578215389,0.17091638116607
545,545,0.159828721488423,-0.0838629373724027,0.895957314519471,0.0527629526733099,-0.0981980760751954,-0.0129183969866851,-0.0385814699278519,0.126476789151996,0.232617139886782
546,546,0.160242531096699,-0.0847346367541147,0.895777703394625,0.0527793947222831,-0.0955797494050412,-0.0122229018866666,-0.0961063127920202,0.204831827230623,0.212618791834824
547,547,0.16058423477944,-0.0855592859064395,0.895589159929642,0.0506798165804695,-0.0912048300306224,-0.0113129570595206,-0.109824259774543,0.209625028868064,0.18914111437631
548,548,0.160893486851466,-0.0863353875105468,0.895400030729718,0.0463408560517093,-0.0853942137180199,-0.0101014740376836,-0.113153526443738,0.237072283047998,0.131195234240388
549,549,0.161209918809845,-0.087061392667203,0.895218655060347,0.0418075416955904,-0.0790756332908654,-0.00859184394609402,-0.0534763025084987,0.213248119391954,0.0732527128117356
550,550,0.161573148175105,-0.0877356897410945,0.895053360973818,0.0388973663699049,-0.0733434610629363,-0.00690861444284092,0.00102005578635482,0.206415994922562,0.0481296910551072
551,551,0.161988402115968,-0.0883477765705962,0.894888586489251,0.0388480902342816,-0.0690899245705955,-0.00527892365554544,-0.0191036802367909,0.140716803913432,0.092440196849927
552,552,0.16242914605294,-0.0888984047615974,0.89471946930002,0.0400470798325851,-0.0657042970982407,-0.00368944922003668,0.00226349633076899,0.177356986110748,0.168676109008515
553,553,0.162887402880008,-0.0894029308232296,0.894570256451397,0.0415736327706809,-0.0623786141293665,-0.00181507415875435,0.0495811637087518,0.14230073831608,0.248884022975123
554,554,0.163355273932631,-0.0898769203735559,0.894465014345383,0.0424052235123936,-0.0586077713174702,0.000584632511988926,0.0432093468725552,0.14288417180934,0.311408552811899
555,555,0.163824950027061,-0.0903361675155762,0.89442763383386,0.0408929262773237,-0.054283356952537,0.00366844085241586,0.0366416624083015,0.178269341069651,0.41578305280195
556,556,0.164308430692294,-0.0907686575625758,0.894481764291124,0.0381851059656055,-0.0478151120021563,0.00805450303948774,0.0264587359610537,0.248258594371461,0.485933582735844
557,557,0.164811026042809,-0.0911639394490719,0.894612110998799,0.0347965751047411,-0.0398065494742219,0.0135555281072316,-0.005991803883795,0.362059012793663,0.467839475551633
558,558,0.165314980981956,-0.0915405351493177,0.894783700002694,0.0311328153653441,-0.0309578782617828,0.0193753707053275,-0.102485813993769,0.409409311565826,0.384753592763551
559,559,0.165802551896914,-0.0919172408167561,0.894961067969426,0.0269064997041939,-0.0233808181513607,0.0248860830407142,-0.0643995400953227,0.466547656808953,0.309888897549837
560,560,0.166255999112176,-0.0923130951554901,0.895108252220262,0.0226719577643334,-0.0183964670300895,0.0293652654556756,-0.0439221078409768,0.470894643879225,0.274453870231373
561,561,0.166680858135635,-0.0927323508331325,0.895234888911113,0.0194598895464531,-0.0161961815005923,0.032824519915207,-0.123090063946502,0.369088898694742,0.262677843411291
562,562,0.167089188487591,-0.0931632602716238,0.895364689302079,0.0175502786938909,-0.0159916996968831,0.0356745559321368,-0.192023277989149,0.348787724086928,0.221612065864373
563,563,0.167472978578102,-0.0936006285151099,0.895482147952927,0.0165159090054164,-0.017045627238729,0.037700862092238,-0.215855372405824,0.340309873896713,0.197193374538982
564,564,0.167824121378997,-0.0940387456284218,0.89557136965182,0.0161592199915412,-0.0183173026006317,0.0389081133442234,-0.257083437169875,0.421528043931112,0.069800590591417
565,565,0.168134406266986,-0.0944714268703678,0.895616120149169,0.0151945336100929,-0.0188954992191532,0.0392342938749668,-0.191396793947538,0.422718168608488,-0.0333687186660659
566,566,0.168384967485693,-0.0949232115850755,0.895640909806594,0.0133266131124188,-0.0210014548866644,0.0381514206689251,-0.139548327185714,0.465041403130278,-0.148032285488104
567,567,0.168581290050591,-0.0953979197784268,0.895655616908272,0.0111342072284074,-0.0244481410447918,0.0358601143174979,-0.11885600848758,0.448771745894239,-0.199586585669537
568,568,0.16875158477195,-0.0958579122555792,0.8956218334728,0.00906621471393085,-0.0275772512353586,0.0328545943078632,-0.144323596419003,0.344228862385727,-0.25782928873709
569,569,0.168924021977344,-0.0962654681283642,0.895501137866942,0.00780828297104695,-0.0300646264095769,0.0294462531834412,-0.201869352555888,0.294204038113362,-0.292162391989889
570,570,0.169126736743219,-0.0965828155128847,0.89525512243168,0.0072089916053557,-0.0312856452905525,0.0260872756463279,-0.153493038720702,0.272296831726075,-0.254651530401381
571,571,0.169379358040098,-0.0967710163143036,0.89474988812532,0.00808850227212648,-0.0306670915356693,0.0224656528593686,-0.224768286221299,0.264274411032885,-0.279644279989047
572,572,0.169663022409755,-0.0968549112025921,0.894010526921488,0.0104956734749644,-0.028420631346359,0.0184179847649595,-0.255603882297739,0.245957997533351,-0.290844472430887
573,573,0.16994814029225,-0.0968924921077036,0.893237256625934,0.0134519632060153,-0.0246560948859036,0.014270920165706,-0.220206611632499,0.225802368796736,-0.311572443213255
574,574,0.170205175113018,-0.0969418566819307,0.892630355826574,0.0156773469196976,-0.020352117465659,0.0103513388593187,-0.182053169830197,0.194484472420296,-0.321704625388464
575,575,0.170404630834878,-0.0970611589727283,0.892390097646035,0.0165117195444464,-0.0162633765304436,0.00696653264577575,-0.0797394463806284,0.201586289329076,-0.327688622700313
576,576,0.170534019273493,-0.0972738792025562,0.892644981181893,0.0160845432443818,-0.0123934193937204,0.00417973462836079,-0.0720085927741376,0.211985437759296,-0.310423360059312
577,577,0.170613010275041,-0.0975412912058675,0.893261446702723,0.0141323154056937,-0.00798549970315747,0.00178587085281969,0.0326897009289858,0.186309898781043,-0.232485077904542
578,578,0.17066035662341,-0.0978282507924679,0.894046688639704,0.011357474163897,-0.00403395981538815,-0.000294134219368377,-0.0313716022434401,0.152411045069963,-0.219112911964283
579,579,0.170694831695649,-0.0980996296700179,0.894807957215118,0.00798970873762793,-0.000242972669160236,-0.00213437655000377,-0.0516989243280691,0.149883285746516,-0.141822211533008
580,580,0.170735233898934,-0.0983203323178236,0.895352586961326,0.00317736497567924,0.00267689873475613,-0.00373248717226955,-0.0690962441323335,0.18418187088795,-0.0918300754183648
581,581,0.170787071621115,-0.0984933636134897,0.895657491558015,-0.00233922416424059,0.00524908465778748,-0.00510220451913649,-0.138258716690728,0.117827794055017,-0.140787201586532
582,582,0.170837833827328,-0.0986422345277889,0.895851504728763,-0.00917151405769623,0.00665198645010433,-0.00629218273279494,-0.129080220531514,0.135869352160402,-0.159744874585078
583,583,0.170879298429773,-0.0987626327451072,0.895969879408243,-0.0162897922832387,0.00770917484514783,-0.00719726093376352,-0.21715942867539,0.114945999551525,-0.184194698551601
584,584,0.170903246076231,-0.0988502331313041,0.896047747757217,-0.0227500899992123,0.00898828275326191,-0.00768583324721413,-0.298726782086102,0.102309774777333,-0.152407456078266
585,585,0.170901464150295,-0.0989006892130159,0.896120079161351,-0.0286525108661698,0.010999416677673,-0.00763889308229942,-0.286953283029477,0.068361647266518,-0.0911248819597933
586,586,0.170875473295587,-0.0989166670346925,0.896179275060084,-0.0350414895080645,0.0137589002518179,-0.00673110318678917,-0.235807684813821,0.0776709570539441,-0.0353127177284542
587,587,0.170830792813053,-0.0989012418523753,0.896202351107176,-0.0423317314588614,0.0167496051935317,-0.00509265173961516,-0.0955598936620121,0.104397752754939,0.0477297054336015
588,588,0.170765190392856,-0.0988505947720055,0.896200978900432,-0.049988744489299,0.0196697411517134,-0.00312087288491511,-0.0218767597887026,0.131298303241519,0.0705184943167369
589,589,0.170676400232297,-0.098760812007925,0.896186701159218,-0.0568953830840012,0.0233357862996549,-0.00108835457952804,0.0571797472393039,0.127519292331003,0.106397574266153
590,590,0.170562124085398,-0.0986278794475933,0.896170923147014,-0.0631118137147551,0.0263240594459175,0.000632054669681105,0.0478398818675539,0.171475855593705,0.0916416337565888
591,591,0.170419940252068,-0.098442113600417,0.896153548027809,-0.0689149963495113,0.0293228605446732,0.00218641360556151,0.0365509995440055,0.243274870261999,0.0686956917139084
592,592,0.170251362213394,-0.0982061718165232,0.896127005739446,-0.074150863351397,0.0326772373681809,0.00357821724958777,-0.014799286955702,0.237207330121149,0.0701580804902646
593,593,0.170059957449275,-0.0979344219349119,0.896091374646981,-0.0794695828710566,0.0367019992354625,0.00475706144809793,-0.00680767445804394,0.201549089567051,0.0576076706606854
594,594,0.169849271102117,-0.0976411597242296,0.896046712079764,-0.0836682346991308,0.0410166856059685,0.00566449522967258,-0.0520295319372588,0.206804501552644,-0.00234600965467667
595,595,0.169622826270198,-0.0973406086477297,0.895993053785364,-0.0872929855774534,0.0444154050939335,0.00627107782105356,0.0139191616922878,0.194890242822748,-0.0224682560551725
596,596,0.169371739421981,-0.0970341369566102,0.895930686048131,-0.0894202843372494,0.046753684776401,0.00627862534423765,-0.041472088079281,0.190980690708949,-0.0793942776088275
597,597,0.169093588802615,-0.0967119932866619,0.895859536414622,-0.090472246329244,0.048419849830476,0.00582451072005454,-0.0563296499387974,0.211118117732672,-0.10979075470959
598,598,0.168801596682538,-0.0963717541709242,0.895779135613586,-0.0902957207433265,0.050666707681102,0.00500994119490408,-0.0339791289383266,0.194187599324023,-0.11718805521623
599,599,0.168509010435524,-0.0960111088573633,0.895689079725003,-0.0900056413726138,0.0530131991349087,0.00406216104703848,0.00585004524503524,0.196125217415922,-0.0186516384753706
600,600,0.16822910005937,-0.0956278612071047,0.895589034284752,-0.0899321557610804,0.0555304614586588,0.00328853317484674,-0.0058340871970627,0.217156638535876,0.0752153863062291
601,601,0.167962318716375,-0.0952332488892782,0.895483757634432,-0.0900655159284672,0.057511927121246,0.002742516055726,0.0759493353159029,0.248394886960025,0.150633044367341
602,602,0.167699811519626,-0.0948287796842921,0.895373793343672,-0.0892747790047973,0.0590714253065967,0.00240650821850606,0.0335612462612973,0.263972884048602,0.0591042277028827
603,603,0.167440909829354,-0.0943977304257701,0.895252273171201,-0.0876075191491679,0.0598142201957838,0.00229295155010634,-0.00282029598252962,0.275266508176256,0.0312048035808976
604,604,0.167184956349126,-0.0939233436411888,0.895111955776743,-0.0848470702756901,0.0604601850437316,0.00236105251702512,-0.0824619729094677,0.241969155829867,-0.0109817079263438
605,605,0.16693130632399,-0.0933888300029346,0.894945250751044,-0.08077863347331,0.0606324943899095,0.00271730041408313,-0.107627870104916,0.275482583541081,0.0159004609491891
606,606,0.166680817292542,-0.0927642503617721,0.89471556220631,-0.0752378324953361,0.0603254254036035,0.00328848548149517,-0.138000175913943,0.255012809688054,0.067847116820485
607,607,0.166433936214846,-0.0920607636252482,0.894427398315833,-0.0680563402705128,0.0604782225103737,0.00406218696853306,-0.151264596362937,0.186120469878692,0.0991109270318532
608,608,0.166189419366545,-0.091323222717079,0.894134718035706,-0.060618494619382,0.0600815901238146,0.00514325706131761,-0.145429936795398,0.224022495985978,0.173198866386406
609,609,0.165946030994901,-0.0905964979753311,0.893891603067678,-0.0532820533764066,0.0591999305579609,0.00668255110173498,-0.145662526320315,0.261071696290699,0.251935142708823
610,610,0.165702542623877,-0.0899254723231047,0.893752233784731,-0.0464836004409,0.0590429097934426,0.00873558173165874,-0.127509963495736,0.172163761946893,0.35472028834554
611,611,0.165462980654081,-0.0893231042767553,0.893737820472513,-0.0404627198789771,0.0578421788745795,0.0115611710297711,-0.10091649639599,0.207253053200949,0.443622008619904
612,612,0.165228203410399,-0.088759468676881,0.893812108681096,-0.0356507150087372,0.0554318373678172,0.0151723170267086,-0.0207303495479042,0.282444492600932,0.553235852545604
613,613,0.164992225917941,-0.0882151447524518,0.893943169051326,-0.0311556744988892,0.054395697115468,0.0191299762079557,-0.0919397337501373,0.245508279241743,0.447036678061367
614,614,0.164749051452338,-0.0876707354053591,0.894099095445279,-0.0276525496727659,0.0543701233293749,0.0225345757658368,-0.0763614987973908,0.280564224694681,0.294583325538061
615,615,0.164492671054311,-0.0871068686119516,0.894248002666701,-0.0255567271561847,0.0553129990800719,0.0244053276677671,-0.0264477647226316,0.2962061063507,0.149839195439643
616,616,0.164224933653453,-0.0865343252889201,0.894398125134327,-0.0246756925250089,0.0571167563441418,0.0243928959119621,0.0279356700511864,0.345035332100423,0.00573534852006242
617,617,0.163949846353611,-0.0859660962842082,0.894570656025747,-0.0242844333012416,0.0589054285466157,0.0230602470166029,-0.019865562883186,0.29917053157578,-0.0596767810998386
618,618,0.163664618426103,-0.08538610172679,0.894753183575323,-0.0240462796380483,0.0606793031404748,0.0208971001572556,-0.156483201567279,0.35656514522637,-0.101326587586374
619,619,0.163366452923007,-0.0847782118162052,0.89493331882251,-0.0236410045658477,0.0627252098201531,0.0183749612724134,-0.2311145880536,0.267150852995671,-0.131326323225517
620,620,0.163052543413374,-0.0841262522551783,0.895098694069652,-0.0239506221086539,0.0650499730929198,0.0160869987651228,-0.265264461668589,0.337848494995246,-0.135949784931094
621,621,0.162721081719276,-0.0834257882845597,0.895246966625095,-0.025426194686594,0.0680528415313149,0.0139914771229055,-0.159942426081613,0.356608043602328,-0.146919712992678
622,622,0.162373881038132,-0.0826875506739305,0.895386385778398,-0.0283988391727846,0.0722812845914218,0.0117156417024681,-0.113403336809989,0.279691009326307,-0.113026621124046
623,623,0.162013567105118,-0.081918101823254,0.895520496438869,-0.031686928767554,0.0767287131295284,0.00953338048932363,-0.0858006174623631,0.286649511939309,-0.14042633908182
624,624,0.1616427900146,-0.0811240208288136,0.895652852941555,-0.034618492895441,0.0803986938080076,0.00759643991632824,-0.0931338415709992,0.267309820937656,-0.139767072990205
625,625,0.161264230292238,-0.0803119003577748,0.895787018714742,-0.036967895409515,0.0827828690981702,0.0061235726022627,-0.0988922374005112,0.245397087500222,-0.13323815261597
626,626,0.160882221815004,-0.0794802382587606,0.895914238346534,-0.0380153541207112,0.0845936213995306,0.00520018351027359,-0.0316723466092343,0.225873594997807,-0.0940724304332134
627,627,0.160494968963651,-0.0786246692851453,0.896032176916924,-0.0377058779866043,0.0858227847792509,0.00478114367201984,-0.0228678270624566,0.180314020109339,-0.0843113941190111
628,628,0.160095991389958,-0.077747487552328,0.896154032343938,-0.0374084509482046,0.0869893967090473,0.00478611302057121,0.0199867175895171,0.153377137972148,-0.0197045956328774
629,629,0.159678815706144,-0.0768509602922682,0.89629299436406,-0.0374731705944922,0.0882573750266128,0.00496039692197934,0.0658745716787918,0.136867562979758,0.0398908730409746
630,630,0.159236974595458,-0.0759373243525154,0.896462245427609,-0.0380956345800849,0.0896539505585426,0.00520944734043299,0.0855928424053541,0.169008303159216,0.0744156242150858
631,631,0.158753350852026,-0.0750017878234322,0.896678229466232,-0.0395885576856975,0.0914973530215794,0.00579153451680349,0.109541904775474,0.198352090860755,0.155505354266025
632,632,0.158232267140547,-0.074042793558347,0.896932173830594,-0.0414777550620936,0.0941913460941923,0.00674544135306557,0.0438348635581643,0.164039990245576,0.0872931179010284
633,633,0.157699430317582,-0.0730674357629006,0.897199459282909,-0.0434036697660548,0.0969274944724469,0.00776349530027266,0.00140336155010229,0.145213978727025,0.0439262600419667
634,634,0.157180558192532,-0.0720828491437017,0.897455505428829,-0.0450648700514522,0.099598988143946,0.00849785830981062,-0.0599647826748406,0.123654441502392,0.013926408686408
635,635,0.15670137833632,-0.0710962141181835,0.897675781068216,-0.0459365648486743,0.101340333366603,0.00877002162538554,-0.0652778797572834,0.212454567328811,0.00846253030316867
636,636,0.156268521392926,-0.0701138375580168,0.897855127090352,-0.0457343799158529,0.103237795105,0.00862092969257353,-0.00478825029730835,0.155352947090333,-0.0302742104897281
637,637,0.155864878154406,-0.0691309852935902,0.898010065638794,-0.0439105426965715,0.104074750528509,0.00802318318681448,0.00571515645628483,0.143845984238525,-0.0763581354644772
638,638,0.155480563556567,-0.0681383095712871,0.898148638363803,-0.0412168784360158,0.104025356825203,0.00703939204182897,-0.00371432010316119,0.134309066847853,-0.0701338384473034
639,639,0.15510568482652,-0.0671264488580694,0.898278893196328,-0.0381041626330166,0.104195084315773,0.00582017068141426,-0.0277046940596897,0.150341235023392,-0.090152663496499
640,640,0.154730342322147,-0.0660860312218665,0.898408897802618,-0.0353492980343704,0.104679927942823,0.00445073041882861,-0.0705168059037383,0.112300641400803,-0.0798960513357996
641,641,0.154354308199019,-0.0650021958809026,0.898545005504635,-0.0336275954532969,0.105302032253492,0.00285099501749927,-0.0836950023525682,0.0980975688634777,-0.129881509694781
642,642,0.153984205709974,-0.0638812755770907,0.898682202894982,-0.0332050415769417,0.106481155060762,0.000970756228568579,0.00746281294789086,0.0986845445351266,-0.105253611720077
643,643,0.153620388007948,-0.0627456474937839,0.898811489234099,-0.0334791826533497,0.107104488533021,-0.00104545200076278,0.0327647342579236,0.0406030369758614,-0.176516265502978
644,644,0.15326318618393,-0.061617628224617,0.898923782526755,-0.0345291842472871,0.106667887671758,-0.00309144149579412,0.14958991963993,0.0707070234014031,-0.182928299684222
645,645,0.152912911195217,-0.0605194681865366,0.89900990615141,-0.0345299959152414,0.105581162284999,-0.00491591803828926,0.112067668515986,0.00438948367616817,-0.233182238936815
646,646,0.152561200639521,-0.0594412730964748,0.899071907700812,-0.0329942262266504,0.103439248311719,-0.00668979416600636,0.0177485383738421,-0.0646240895337974,-0.263359047934606
647,647,0.152207810271828,-0.0583681385081342,0.899116298188686,-0.0310313520306029,0.100131570916668,-0.00854721784475014,-0.0119487587843942,-0.102304076398411,-0.233679119718422
648,648,0.151865218828501,-0.0573147786196197,0.899140352719986,-0.0285110994807304,0.0965369225259485,-0.010341562553656,-0.0658079886124464,-0.125946226063536,-0.138419262555162
649,649,0.151545910023359,-0.0562959487076641,0.899141096701501,-0.0265307182672459,0.0930562666677678,-0.0118481005420468,-0.05563848668335,-0.140678011301585,-0.0640465029031483
650,650,0.151262375847133,-0.0553264441433488,0.899115295456339,-0.0258564276477522,0.0892977395772277,-0.0129501357001042,0.0347624261907236,-0.17653632554202,0.0412781627296157
651,651,0.151028913974873,-0.0544200142658407,0.899053570874406,-0.0257543793597391,0.0849308724668624,-0.0135113199877787,0.139413709971905,-0.215125969051599,0.0162393774406575
652,652,0.150837180703286,-0.0535668364750628,0.898957873689718,-0.0263409879977463,0.0794553274033744,-0.0136451169536584,0.195658852989805,-0.230874195814687,0.0165700187701149
653,653,0.150665716186332,-0.0527463621143452,0.898841792491002,-0.0271558294832902,0.0741900377970186,-0.0135690060894714,0.237165549172151,-0.351319863919942,-0.00549587023044003
654,654,0.150493060080433,-0.0519380238863011,0.898718938193521,-0.0277319654558508,0.0696785541793378,-0.013451953413944,0.17202832373441,-0.329516745677109,-0.00638476643652227
655,655,0.150297751714645,-0.051121236320121,0.898602945543341,-0.0271198999991361,0.0664876682399157,-0.0135115947966311,0.0813266091171173,-0.261051670373768,-0.0625054466063305
656,656,0.150077345453204,-0.0502846924889529,0.89849924543893,-0.0254529971380905,0.0646507519745237,-0.0138754125462638,-0.0306294858568061,-0.236331020967993,-0.105657587445775
657,657,0.149846152673365,-0.0494420878357442,0.898398629730466,-0.0228308152403699,0.0640474101829008,-0.0144446649702389,-0.0679781575369781,-0.207064462355555,-0.0760178415781273
658,658,0.149607842134961,-0.0486103562707818,0.898292786333624,-0.019615938832508,0.0645712461309597,-0.0150002139840811,-0.139795548688176,-0.186034382795524,-0.0542034396392001
659,659,0.149366069012981,-0.0478064664376303,0.898173386551113,-0.0171561353474828,0.0649812848016578,-0.0153208010293667,-0.115424213457247,-0.218732557899827,0.0650370614056819
660,660,0.149124474845305,-0.047047423522143,0.898032090444671,-0.0152880778037144,0.064625183442561,-0.0151136237318822,-0.0815014338233059,-0.263450946679299,0.13598658739489
661,661,0.148874040606048,-0.0463203024745899,0.897855129944022,-0.0148082623426737,0.06353911904029,-0.0143597618921228,0.0397653933833069,-0.298509455191952,0.147103844554436
662,662,0.148612311669696,-0.0456138960516407,0.897647955078808,-0.0150833377579224,0.0620893778322703,-0.0131797984074191,0.092932115300539,-0.369450909667732,0.166814954432694
663,663,0.148352786016063,-0.0449477364188177,0.89743106147667,-0.0160111423228833,0.0601947282270807,-0.0116753294720157,0.144443175195208,-0.317784006399434,0.204639095280264
664,664,0.148108984806805,-0.0443412452974147,0.897224945967955,-0.0169058138397513,0.0579882363553406,-0.010015239016124,0.138870315168266,-0.299010703046238,0.185531422360488
665,665,0.14789444545632,-0.0438137357288442,0.897050101886334,-0.0179511221694613,0.0558570915537879,-0.00828142859310076,0.170542257453818,-0.274860629570491,0.141070986428301
666,666,0.14769966660536,-0.0433945434642255,0.89691561753013,-0.0187897248387767,0.0531809195377091,-0.00640598499383662,0.195581665177758,-0.310671307534703,0.190720316015891
667,667,0.147515645393724,-0.0430706367147212,0.896807776529784,-0.0193158596718476,0.0495568146594303,-0.00432637482779582,0.118368643881271,-0.258568059889329,0.183343719385613
