,Frame,CoM pos x,CoM pos y,CoM pos z,CoM vel x,CoM vel y,CoM vel z,CoM acc x,CoM acc y,CoM acc z
0,0,-0.0316597044474841,-0.0267739567718733,0.896982691756007,-0.00130019050016278,0.00284295325581185,-0.029525612063517,-0.0213076762551523,-0.0187916499377303,0.0378242297601097
1,1,-0.0316641618486419,-0.0266279064113566,0.896818691284793,-0.00231200816764584,0.00202731252001537,-0.0293217584061358,-0.0368859095125356,-0.0713629552692532,-0.00890735064511307
2,2,-0.0316673454449582,-0.0264781961800405,0.896648629748851,-0.00329988891006875,0.000903844830617202,-0.0290905015056622,0.00107566210134156,-0.0567014017707932,0.0574783470999717
3,3,-0.0316711676045064,-0.0263303174848082,0.896481586775102,-0.00398647042488732,-7.80148955945084e-05,-0.0288664796396743,-0.0700276101897338,-0.0639850903527596,0.01154712577984
4,4,-0.0316775399310273,-0.0261897617719967,0.896326642984012,-0.00492726783410656,-0.000968378721425325,-0.028645212929032,-0.00318101950970683,-0.0480625375596231,0.0527632437448013
5,5,-0.0316883733600756,-0.0260620204906372,0.896192879941393,-0.00562572122183294,-0.00156040686014398,-0.02846545696909,-0.0235285968352534,-0.024243488489068,0.0341702014687081
6,6,-0.0317029893224942,-0.0259484379801927,0.896084451168473,-0.00630753672556806,-0.00189492567676648,-0.0283295917562485,-0.0102246375522033,-0.0556111021911096,0.00814997243586158
7,7,-0.0317201123316253,-0.025845353290637,0.895995304437287,-0.00698309460041634,-0.00209190270949332,-0.0282428740753962,-0.0354608232860806,-0.0466610769610245,0.00142751864602451
8,8,-0.0317407581747543,-0.0257507497529772,0.895919212874232,-0.00761779699040566,-0.00232804868602439,-0.0281624034503173,-0.025835851074918,-0.0439454906749502,0.0346559073766104
9,9,-0.0317659433194863,-0.0256626105933191,0.895849949011391,-0.00811710989788528,-0.00231651011239139,-0.0280720185868837,0.00697409903651163,-0.0563022696511371,0.0112094404876344
10,10,-0.0317966847889627,-0.0255789189778168,0.895781284843772,-0.00819665054241953,-0.00236620831434066,-0.0279452029586019,-0.0555345849291456,-0.0834193410159748,-0.0063279235779103
11,11,-0.0318345165417065,-0.0255005546495837,0.895714430970436,-0.00827129519467261,-0.00259669356892476,-0.0277780545718577,-0.0174765551418271,-0.0611103123627797,0.0321071980368465
12,12,-0.0318787609542009,-0.0254288617450457,0.895653539972965,-0.00820667611388275,-0.00298584826719839,-0.0275572127688789,-0.0131104081141335,-0.0607524189317754,0.0325011527089305
13,13,-0.0319271181087899,-0.025362520034504,0.895596796405569,-0.00815197308599611,-0.00288608079600379,-0.0273014964039693,0.0137682218597233,-0.0596560463266804,-0.000859906744998522
14,14,-0.0319772881868334,-0.0253002093775605,0.895542384708464,-0.00801565189750199,-0.00294078810841102,-0.0270462944444784,-0.0137563730291822,-0.0587197297209595,0.0181696260330368
15,15,-0.0320269714592621,-0.0252406097261913,0.89548848919134,-0.00802759113091948,-0.00309584769420749,-0.0267940472064752,0.00527857657628239,-0.0677411870186048,0.00398189081215916
16,16,-0.0320755818136284,-0.0251839893432014,0.895435190700483,-0.00845589553618091,-0.00322193269633247,-0.0265515136149511,0.0386807317096993,-0.0653838850085864,0.0281278740377833
17,17,-0.032124652806995,-0.0251312281816,0.895383700025821,-0.00870178751493421,-0.00363898503404772,-0.0263543383183404,0.0157968157597188,-0.0783325530861507,0.0120829351018312
18,18,-0.0321750642164828,-0.0250819237781809,0.895333896284235,-0.00906076019185748,-0.00396436894231183,-0.0261363263562794,-0.0280183465961009,-0.0511630081324034,-0.00399018934884311
19,19,-0.0322276957958356,-0.0250356736263686,0.895285658561925,-0.0093337595044866,-0.00416805396596777,-0.0259132664097497,-0.00649003454440085,-0.0351141738277949,0.011372764692018
20,20,-0.0322834272951533,-0.0249920751846818,0.895238865921406,-0.00934458076026677,-0.00421130282665386,-0.0256664696877328,-0.0143067476341133,-0.0714789446228776,0.00446528151937596
21,21,-0.0323449129705395,-0.0249514529485451,0.895193792367184,-0.00934875343351347,-0.00415851329267388,-0.025372147161449,0.00661760424370217,-0.0441230003784422,0.00705391223643793
22,22,-0.0324115665356472,-0.0249140751585106,0.89515051870336,-0.00925277826504784,-0.00410159811591732,-0.0250447651103649,-0.0115160324738679,-0.0644413479470585,0.0259153985682576
23,23,-0.0324794068228179,-0.0248794550077434,0.895108634296896,-0.00915956682867706,-0.00396614910065934,-0.0247082424833512,-0.00469872220618525,-0.0712804828067637,0.0233120668467587
24,24,-0.0325444525565889,-0.0248471057945918,0.895067728636105,-0.008973366844846,-0.00385281253538859,-0.0243779219788309,-0.00516148715399335,-0.0610415667627558,0.0302519535592144
25,25,-0.0326027223766857,-0.0248165408821354,0.895027391335956,-0.0087390049465099,-0.00395943322953721,-0.0240464719825001,-0.0112755891391966,-0.0252591413301939,0.00709060985216568
26,26,-0.0326530107496343,-0.024789428512614,0.894987489140637,-0.00854510918863722,-0.0039445903967437,-0.0237701792192149,-0.0256399811950457,-0.0561846009769465,0.0141115031843399
27,27,-0.0326979718063101,-0.0247660933033911,0.894948296314581,-0.00837702548939096,-0.00401458673097832,-0.0235423849395347,0.014439772468212,-0.0656749081138248,0.0327421638166733
28,28,-0.0327394136287819,-0.0247440332211238,0.894910013659336,-0.00793295146170519,-0.00427068731492615,-0.0233129140153785,-0.0374567169040534,-0.0343729603969844,0.019402329207142
29,29,-0.0327791443081552,-0.0247207462190828,0.894872841712962,-0.00748032318711934,-0.00425722855156546,-0.0230176440691158,-0.0469236373960376,-0.0699605492938626,-5.05601093137404e-06
30,30,-0.0328189719316995,-0.0246937302554558,0.894836980932045,-0.00707087842196316,-0.00444083569757087,-0.0226567913391977,-0.0167215102602076,-0.0639368374860294,0.00380942683138755
31,31,-0.0328580786959593,-0.0246623452261884,0.89480266152668,-0.00680443385926605,-0.00437779566101127,-0.0221281654260378,-0.0101661756950456,-0.0400671499690499,0.029841527899467
32,32,-0.0328952590788002,-0.0246282592658563,0.894769750928819,-0.00656082897228171,-0.00401659040968536,-0.0214472874281122,0.0131996141066636,-0.0684789649451066,0.0552220736212136
33,33,-0.0329317395812462,-0.0245924327602165,0.89473790534571,-0.00648022737623231,-0.00359504028422059,-0.0207362014907547,-0.0267004371655629,-0.0646643642968936,0.0665520068843377
34,34,-0.0329687466976159,-0.0245558261644923,0.894706780406013,-0.00641568137204297,-0.00285899704589937,-0.0200621971830865,-0.0156765554861167,-0.0512413010268263,0.0293763996164295
35,35,-0.033007506938203,-0.0245194000335269,0.894676031051836,-0.00634630076536573,-0.00240843365605995,-0.0195750223596493,-0.0521940259865017,-0.0405000869710571,0.0668668413359905
36,36,-0.0330481455896699,-0.0244837537180908,0.894645312605099,-0.00666830576575497,-0.0022357830158551,-0.0193177816436522,-0.000643007843168164,-0.0503471890251624,0.068217084845694
37,37,-0.033089844749807,-0.024448247642119,0.894614856242587,-0.00654167806779724,-0.00191033975318247,-0.0192141890258787,-0.0315562082644089,-0.0737067025679008,-0.0207930813783282
38,38,-0.0331324164458917,-0.0244119835600011,0.894585179536186,-0.00667123222062699,-0.00168168829662367,-0.0192023203459448,0.00346784108524101,-0.0457247387099337,0.00735357016033256
39,39,-0.0331756730050575,-0.0243740624032193,0.89455679888381,-0.00669469701548888,-0.00136801481089566,-0.0191878625470708,-0.0239757436186219,-0.0463945871712822,-0.00954576373649749
40,40,-0.0332194269685433,-0.0243335843462351,0.894530229520273,-0.00659788650343232,-0.00111641856466811,-0.0190759525952334,-0.0223685209776044,-0.00519231664987097,-0.021117539694934
41,41,-0.0332645692453734,-0.0242900595258999,0.894505792484378,-0.00642460599561167,-0.000613805499476294,-0.0189042882972981,-0.00304823008212921,-0.0316718772155372,0.0174123848144901
42,42,-0.0333112251639991,-0.0242440870377771,0.894483143232292,-0.00671531554958299,-1.38520368135428e-05,-0.0186345209557342,-0.0151554494558464,-0.0323177896280746,0.00856551921805541
43,43,-0.0333580588044977,-0.0241964003632646,0.894461797867454,-0.00661829858696461,0.000233015685887717,-0.0184012682710937,-3.90898346039614e-05,-0.0169730201963776,0.0165638201242839
44,44,-0.0334037341153619,-0.024147733157907,0.894441272440852,-0.00669037387720073,0.00049390018422322,-0.0181433663806007,0.037826171840974,-0.00367063245641168,0.0089226895843023
45,45,-0.0334469149915461,-0.0240988191016781,0.89442108303394,-0.00701589738903966,0.000792428957472603,-0.0178338208067282,0.00564273027597372,0.000923841374667755,0.00666002804807341
46,46,-0.033486684959026,-0.0240522538538369,0.894400603058473,-0.0073572999729435,0.00101660719827169,-0.0174912318069177,-0.00902255196226949,-0.00433009877664676,0.01825840671601
47,47,-0.0335239344756255,-0.0240075479133358,0.894380155091614,-0.00763091096589771,0.00106844932542379,-0.0171622437528007,0.00585871020733141,-0.00128795136593441,0.0174857006889893
48,48,-0.0335600379543724,-0.0239608074072417,0.894360678908901,-0.00789891887263932,0.00111181214441131,-0.0167928139466619,-0.0334214248674827,-0.0196148376479197,0.0274258410166922
49,49,-0.0335963699198545,-0.0239081389344337,0.894343113561847,-0.00782802947523786,0.000713057612225638,-0.0163863847952572,-0.0182325865714047,0.0107476120265222,0.0098139212626473
50,50,-0.0336343050721196,-0.0238456495673071,0.894328397730359,-0.00751070402606817,0.000737717358135334,-0.0159089714222858,-0.0379959334945237,-0.0136405939797484,0.0253610014945147
51,51,-0.0336797636348762,-0.0237752329759343,0.894316135963873,-0.00709991922942706,0.000671211641635816,-0.0152921732473708,-0.00737385476702057,0.021126894017527,0.00967562355208985
52,52,-0.0337318293254807,-0.0236994848102517,0.89430570390178,-0.00690449123173791,0.000880988230695093,-0.014538771632744,-0.00554274040296133,-0.0379424731871834,0.0433088174225262
53,53,-0.0337816226460364,-0.0236155653106683,0.89429769756332,-0.00642556472486857,0.0012379525350361,-0.0137505143702807,-0.0415353403186191,-0.0161125979587352,0.0477619337609566
54,54,-0.0338202646969678,-0.0235206345125823,0.894292712777924,-0.00601370303953274,0.0016988587413676,-0.0129452886746526,-0.0259696191771778,-0.0302361589231568,0.0802919001525984
55,55,-0.0338388772180905,-0.0234118520593901,0.894291344717546,-0.00540717310050323,0.00259458261478637,-0.0122104211990814,-0.0464220390319353,0.00183158063933424,0.0986524536157796
56,56,-0.0338290124265638,-0.0232910145026963,0.89429471229469,-0.00451550348815084,0.00365913128251295,-0.0114871967856346,-0.0536704855313214,0.01455590472387,0.102851279392858
57,57,-0.0337965917622566,-0.0231600130451632,0.894302422419023,-0.00288483337021079,0.00520633363533474,-0.0107297528997046,-0.0467936329783779,0.0170462492421161,0.0415026830077234
58,58,-0.0337542905713897,-0.0230161503184293,0.894312800178847,-0.00127365839877108,0.00643099599070488,-0.0100438636653512,-0.112909435951436,0.0279170808519731,0.062907337880289
59,59,-0.0337147832875135,-0.0228567317840481,0.894324168359448,-0.000157572111740795,0.0076161381719433,-0.00943784182917062,-0.140944412023891,0.0707286532493578,0.0380411109706518
60,60,-0.0336907434243416,-0.0226790662384825,0.894334848487739,0.00065508669178353,0.00949773247126871,-0.00905548633752232,-0.145664100045413,0.0416737141700945,0.0555724817979776
61,61,-0.0336792596504328,-0.0224868056981871,0.894345739133942,0.000482500914378498,0.0114161754842741,-0.00885726659769143,-0.148534653859932,0.0968952735627869,0.0459123591613493
62,62,-0.0336718822665256,-0.0222817475238119,0.894357962896687,-0.000453802646822049,0.0135926926270444,-0.00883071539346822,-0.111815463648904,0.0999552900747197,0.042341283943036
63,63,-0.0336729790316785,-0.0220584228648659,0.894370177785957,-0.00203539189921041,0.0159233775185488,-0.00886362069158683,-0.0779146791638495,0.121952945354731,-0.014485204943962
64,64,-0.0336869212032235,-0.0218113660288155,0.89438104155962,-0.00415098074419185,0.0186844809575425,-0.00893619584731911,-0.0886872090160476,0.142151555470756,-0.0221174148022162
65,65,-0.0337180835527399,-0.0215351149179304,0.89438921251113,-0.00588776124707392,0.0213164205125615,-0.00903283316380306,-0.118557979343345,0.139892070086958,-0.01482186537429
66,66,-0.0337710117799352,-0.0212319938448135,0.89439364808341,-0.00732582992572583,0.0238422506386623,-0.00922091332049658,-0.181199618548461,0.186318648756573,-0.0301552948496522
67,67,-0.0338427980540527,-0.0209056576247029,0.894395255475127,-0.00872465422207178,0.0265013675033482,-0.00955030135066103,-0.200103015463596,0.143724042328484,-0.0324410258003829
68,68,-0.0339266396236903,-0.0205526443306611,0.894395620303484,-0.0107431484232367,0.0288279052011995,-0.00988751662136575,-0.147781424790409,0.118178160323486,-0.0137521272544445
69,69,-0.0340157339844485,-0.0201694936360173,0.894396330979738,-0.01250303984754,0.0314955546804246,-0.0101878631885309,-0.180980301953295,0.164297091098041,-0.0239197879464376
70,70,-0.0341032779471276,-0.0197527454927019,0.894398980347019,-0.0139214842435738,0.0348268936906504,-0.0103292394321559,-0.196179314722352,0.151054723819026,-0.00578715332136039
71,71,-0.0341854278339613,-0.0192957076838057,0.894402301007225,-0.0148400230666714,0.0392294788159187,-0.0103288204116764,-0.223817970824373,0.101073827714484,-0.0191081040926227
72,72,-0.034266737374054,-0.0188007041534551,0.894405276853456,-0.0151240074498074,0.0439673530419981,-0.0103051883407778,-0.214384488014259,0.105198390193177,0.0141716612299858
73,73,-0.0343529806188042,-0.0182777961399872,0.894409871688031,-0.0150188881070756,0.0486612179533129,-0.0101881899514862,-0.213729382116039,0.112523093014187,-0.00471064656578637
74,74,-0.0344499053365766,-0.0177370432654579,0.89441803409215,-0.0154458121311869,0.0527527694330361,-0.00996595165429786,-0.153499700034014,0.141651720869121,-0.00222876631195448
75,75,-0.0345632341920039,-0.0171885052860416,0.894431701210205,-0.0166015420170349,0.0551310760904893,-0.00950545149621513,-0.103875898254403,0.239169695818765,0.0948464297610808
76,76,-0.0346959060993096,-0.01661886038656,0.894453020337843,-0.0180708686196028,0.0567188691124134,-0.00872970011426605,-0.104699516101432,0.224320985765384,0.129705190509131
77,77,-0.0348440453401073,-0.0160214225824475,0.894480768272847,-0.0195497017704435,0.0574136015608489,-0.0076538349430658,-0.0862377841019448,0.191547731716634,0.100342604452957
78,78,-0.0350031599052522,-0.0154161981995101,0.894511797232118,-0.0213566751930574,0.0575727326550408,-0.0065005149248863,0.0103148133963691,0.0892997168710991,0.132796599742097
79,79,-0.0351687922544803,-0.014823182907227,0.894542911341969,-0.0228059856371884,0.0569596293121178,-0.00542389824673651,0.0132149214149286,0.0178982714825004,0.0753593095718296
80,80,-0.0353365168919834,-0.0142623622452611,0.89457086001214,-0.0239780025356912,0.0564228693814076,-0.00466782367296606,0.000553626751233716,-0.050174598946011,0.0322543919488439
81,81,-0.0355039510552402,-0.0137405641822872,0.894595374711506,-0.0242858712215558,0.0552730028543799,-0.0043327666845141,-0.0973036311216008,-0.0466780805811439,-0.0451024862228448
82,82,-0.0356740639508447,-0.0132444821656931,0.894618619735527,-0.0249137238362472,0.0527306519884003,-0.00427731337826019,-0.0718557357757074,0.0165583458707013,-0.0272323291404506
83,83,-0.0358504738323193,-0.0127638669910529,0.894640921672026,-0.0251868875536187,0.0505507154571537,-0.00440684512947686,-0.0639085875710906,-0.0366874673852192,-0.0346101088587735
84,84,-0.0360367977751424,-0.012288433609568,0.894662564385114,-0.0255677721320344,0.0486865840997625,-0.00459575231412204,-0.00488734710679044,-0.0652802200597329,0.0444250066081194
85,85,-0.0362366521080027,-0.0118078647525495,0.894683797031833,-0.0258967163453397,0.0470842029277681,-0.0046617202625727,0.0293950025727452,-0.101635861536296,0.0588378497634634
86,86,-0.0364583504753775,-0.0113144592817292,0.894705749822105,-0.0264875479317532,0.0453939456847566,-0.00458015720087459,0.0613497546094163,-0.140920955030975,0.0445499240033059
87,87,-0.03669948797979,-0.0108150380924857,0.894728174485427,-0.0270817162310077,0.0437348351010794,-0.00440637769730642,0.111442611794143,-0.213714107060373,-0.000857396461396006
88,88,-0.0369476004131221,-0.0103210636249822,0.894749252580573,-0.0274127242210667,0.0415818038204809,-0.00416696945689753,0.14157710281344,-0.238417310956556,-0.0458477656191265
89,89,-0.037190222141982,-0.00984401428659389,0.894767179630354,-0.0275154040571231,0.0393742818140788,-0.00389770871448501,0.143615948009621,-0.254917332083964,-0.0446593147274643
90,90,-0.0374148867665462,-0.00939537991100463,0.894780157772922,-0.0266971244725126,0.0375574981840966,-0.00366110124417684,0.100789675788708,-0.248077496348986,-0.0407879297166922
91,91,-0.0376221823571309,-0.00897880089184638,0.894787263373549,-0.0250150360428763,0.0355749006287671,-0.00350229729751241,0.0992492038470537,-0.218592381365855,-0.0148829095657159
92,92,-0.0378204183920201,-0.0085866172495443,0.894789680963489,-0.0224354022553898,0.0335749526324576,-0.00336308799565154,0.0567925682299288,-0.249506493713759,-0.052490556320034
93,93,-0.0380087104304938,-0.00821337374527457,0.894788781200478,-0.0198175884605981,0.031455572926885,-0.00323790655319775,0.110893870536476,-0.249196514194161,-0.00171700396821333
94,94,-0.0381861748881321,-0.00785361419584057,0.894785937352567,-0.0175003509497623,0.0293352161650089,-0.00314526715042234,0.148366309198538,-0.237173421814358,-0.00991263937612611
95,95,-0.0383519290917786,-0.00750188163856044,0.894782524230141,-0.0159385941107993,0.0275100823098497,-0.00306979197950898,0.1611954537084,-0.199259065105714,0.0303265331254682
96,96,-0.038506167212399,-0.0071549013064875,0.894777968304153,-0.0148164774179254,0.0259448107781029,-0.00304937686571165,0.160657302256199,-0.179354456906398,0.0121681913595908
97,97,-0.0386494754874385,-0.00681631017943913,0.894771349450583,-0.0139727849963044,0.0252200896815674,-0.00311479247374808,0.15115733299169,-0.198475963711955,0.0012799999662637
98,98,-0.0387815621044765,-0.00649101950141674,0.89476352468305,-0.0134762483759081,0.0243977719979501,-0.00317698697643478,0.120946891584903,-0.153801739484669,-0.0413203048334999
99,99,-0.0389021386391791,-0.00618394029097688,0.894755352110809,-0.0128149554771264,0.0235012994626076,-0.00324559960875578,0.131893955391928,-0.174895810819146,-0.00608189920434252
100,100,-0.0390109199568602,-0.00589998251100553,0.89474769069948,-0.0120411377563404,0.0220899845984094,-0.00324793904482845,0.139575232841829,-0.148240489122682,-0.027938985782902
101,101,-0.0391074614448863,-0.0056426532544917,0.894739728499784,-0.0110250088872609,0.0205210903582933,-0.0031984206018414,0.0860679558488908,-0.143468858961623,-0.00214917265200456
102,102,-0.0391919589979414,-0.00540867796978675,0.894730893869392,-0.0099675619323592,0.0184464320896317,-0.00313410389249937,0.122601930627241,-0.112225551443073,-0.00913871716897808
103,103,-0.0392650898002096,-0.00519279356738809,0.894722406501702,-0.00866086006462681,0.0164609452872014,-0.00305515422137176,0.124007707565562,-0.0920821689993088,0.00242930547676126
104,104,-0.0393275301272421,-0.00498973754645384,0.894715485198609,-0.00702373944562657,0.0146580107323025,-0.00294792939621917,0.119946921752752,-0.118103264301143,0.0184859931059182
105,105,-0.0393799554114435,-0.00479424843549585,0.89471134784122,-0.00582381867443038,0.0131605337994569,-0.00277922736433795,0.142750613340475,-0.12478003499629,0.00754972930132789
106,106,-0.039420500433486,-0.00460577022502419,0.894711094614899,-0.0044626627888762,0.0121503866126509,-0.00247419120793696,0.120925844194715,-0.163442255144061,0.00517133753635416
107,107,-0.0394487191018455,-0.0044278102857419,0.894713913140801,-0.00374500121741028,0.0108052972803676,-0.00205422477705038,0.171501212813619,-0.126765920355622,0.0163794559635352
108,108,-0.0394674123796325,-0.00426120264142694,0.894718151578051,-0.00307291982091257,0.0100166321667967,-0.00160070440757483,0.140971868499384,-0.124575205044222,0.0287564790646286
109,109,-0.0394793778524133,-0.00410678048332235,0.89472215758887,-0.00262455891217174,0.00914434660223942,-0.00121092732449232,0.159353351586532,-0.0935273821252775,0.0316898272416798
110,110,-0.0394874102107034,-0.00396537622239256,0.894724278417093,-0.00217679290133005,0.00818912703741133,-0.00101098487647987,0.10667196720348,-0.0834858242250412,0.0279316189592359
111,111,-0.0394886323180376,-0.00383835225762276,0.894724098316705,-0.00175875132955088,0.00690771417509862,-0.00106308861405803,0.0750309698687632,-0.0795690652371094,0.0110616964876439
112,112,-0.0394811774178386,-0.00372515200913064,0.894722718437206,-0.00149951989600228,0.00558160569237821,-0.00132144221458608,0.0502509875437938,-0.0842472224746651,-0.0146192655727958
113,113,-0.0394693552165568,-0.00362372875441375,0.894720760945202,-0.0011890440606233,0.00392173117187149,-0.00166008688945538,0.0496038121575194,-0.092826878821334,-0.0436664970994865
114,114,-0.0394574762282526,-0.00353203523280714,0.894718847182623,-0.000937297436800277,0.00223999275562634,-0.00192360544694676,0.0716964871353195,-0.100019870537407,-0.0347497947019192
115,115,-0.0394498516309374,-0.00344802392710833,0.894717597862234,-0.000751877343020908,0.00109116157221722,-0.00198972879997041,0.0653409686465488,-0.122390065999235,-0.0316843921862105
116,116,-0.0394510454166238,-0.0033730558447622,0.894716954066232,-0.000573279687284965,-0.000182162170716149,-0.00176962368456589,0.0616680211436619,-0.100868339086718,-0.00497563860268763
117,117,-0.0394581851519313,-0.00330849537042599,0.894716501747865,-0.0004890391542711,-0.00115056507518533,-0.00138565224320789,0.0607698452241794,-0.107966931992918,0.0198280465498014
118,118,-0.0394644271900069,-0.00325230020977988,0.894716328814817,-0.000396106614724769,-0.00177019389175123,-0.000908393556646444,0.035692323358191,-0.128184667531807,0.0367021128705707
119,119,-0.0394629262789772,-0.00320242743979237,0.894716522236242,-0.000490393907576445,-0.00240233295614058,-0.000429454479828042,0.0362159506810491,-0.133726589312886,0.0671505749624384
120,120,-0.0394468351168246,-0.00315683292074903,0.894717167981863,-0.000626582960583746,-0.00305646131376488,-4.30653195236409e-05,0.0432004239915187,-0.134776912335162,0.0469612558725675
121,121,-0.0394140247598442,-0.00311216594734815,0.894718515743764,-0.000487215740881416,-0.00379255189472305,0.000263841222348046,-0.00836145182181408,-0.0883829471905476,0.0246853046199832
122,122,-0.0393690559025332,-0.00306978643695153,0.894720507739629,-0.000211895121169409,-0.0042865869426434,0.000546449078715769,0.000771027362613138,-0.156434983115454,0.0400319904176928
123,123,-0.0393151158919777,-0.00303471576288925,0.894722769153126,5.1865049606649e-05,-0.00498344358825073,0.000807730073185089,0.00111140954083787,-0.111556393180624,0.0171195800877902
124,124,-0.0392553951604852,-0.00301197671507917,0.894724925793193,0.000853919359864509,-0.00583447564690448,0.000999128129026696,-0.011427828462358,-0.148617829969485,0.0327973094496874
125,125,-0.0391930874336035,-0.00300659372493165,0.894726603709151,0.00145508914818246,-0.00719918271749521,0.00117974956690127,-0.0262345757442712,-0.137267274592353,0.0427041807056115
126,126,-0.0391253714028513,-0.00302219453856913,0.89472715611522,0.00223754430993483,-0.0085371407996626,0.0012504322303861,-0.0258534486136504,-0.127765317323624,0.014325770305013
127,127,-0.0390501212496293,-0.00305542986318175,0.894726833779882,0.00295760377438408,-0.0103436203879179,0.00125572011722731,-0.0286085180804674,-0.155052913362043,0.0235841312642882
128,128,-0.0389715756502323,-0.00310085962708255,0.894726609097657,0.00357373093028959,-0.0124009494069701,0.00124635979091987,-0.0159585553644781,-0.0801940043142341,-0.00461857699556469
129,129,-0.0388939723583217,-0.00315304306462533,0.894727454824756,0.00435544679772063,-0.0140768288983498,0.00124717853395165,-0.011719560912889,-0.0803593939651851,0.00878802610533757
130,130,-0.0388215483998856,-0.00320653932159973,0.894730344501983,0.00478476341673527,-0.0151525859607572,0.00132407740222579,-0.00768400462223573,-0.0824918697612891,0.0508705694353125
131,131,-0.0387618496616708,-0.00326377585733176,0.894736177084884,0.00471690968021949,-0.0153055741065622,0.00159519181413087,-0.0219756359613889,-0.100793008755816,0.0376082993285696
132,132,-0.0387120537704427,-0.0033283826713933,0.894744306407907,0.00382700851169188,-0.0154867546494362,0.00199387354252719,0.00186107561431123,-0.0717604342185537,0.0549929245665105
133,133,-0.0386608443240359,-0.0033967222388278,0.894753389535933,0.00296449267270256,-0.0149877391436466,0.0024257508928985,-0.0444597548886047,-0.0708259316786624,0.0766308149702073
134,134,-0.0385969033630254,-0.00346515462482656,0.894762083950193,0.00240545356099446,-0.0147154420400815,0.0027583602910919,-0.046474933332017,-0.0790202798602744,0.0429958481879723
135,135,-0.0385089110776497,-0.00353003694218344,0.894769048048896,0.00212079608922782,-0.0144021277266781,0.00289077606503796,-0.0332602805738498,-0.0856807155882674,0.0320308060745522
136,136,-0.0383783298552185,-0.00359281827014793,0.894774474034609,0.00279663576039435,-0.0143641173244821,0.00271767049322663,-0.0805550437409195,-0.0943736256046868,-0.0123964284472937
137,137,-0.0382127032010298,-0.00365592248913726,0.894779266930429,0.00441107464033283,-0.0147226709017086,0.00229963873299046,-0.0926492136275775,-0.0771670531499242,-0.0518617693169935
138,138,-0.0380398345650859,-0.00371717136382243,0.894783152826532,0.00637220763401709,-0.015601282115237,0.00173947525718592,-0.0428785312046106,-0.0388679552540294,-0.0473630045237299
139,139,-0.0378875313336542,-0.00377439405132681,0.894785852278836,0.00758322589494773,-0.0161692521453254,0.00126768177595165,-0.0484435264989917,-0.0793019644266302,-0.019326394843737
140,140,-0.0377836038371144,-0.00382542671712297,0.89478708036135,0.00778606501981611,-0.0163951199272452,0.00103522668679246,-0.0753446962537236,-0.0606157915882048,0.0202695021733004
141,141,-0.0377316244432617,-0.0038696928074116,0.894786981758865,0.00605154192850107,-0.0156785196341947,0.00114372668767317,-0.0283279683110635,-0.0836409629985692,0.0913675250766476
142,142,-0.037713056050427,-0.00390864923442352,0.894785755636404,0.00283256611958838,-0.0146165414028844,0.00153708629657322,0.000884400348519927,-0.040911134625104,0.102717831672565
143,143,-0.037722542575051,-0.00394318278935291,0.894783188293075,-0.000941714506584184,-0.0132393602676506,0.0020295303551157,-0.0743936922004368,-0.0149541840092651,0.0828784348068255
144,144,-0.0377547261021237,-0.00397417500427999,0.894779053582683,-0.00448868150375165,-0.0115541644401356,0.00247902982691623,-0.0888809399005161,0.00856017662400192,0.0297678973014498
145,145,-0.0378042487900588,-0.00400250225113875,0.894773113131127,-0.00749321813392849,-0.00964427815287001,0.00275559958659472,-0.126691737427318,0.0417148308320574,-0.0438784637259016
146,146,-0.0378852479397045,-0.00403233017064302,0.894763975825458,-0.00948174873887856,-0.00784547318635832,0.00268117033206717,-0.120636307251788,0.0290338146937466,-0.0457360978553251
147,147,-0.0380012927568706,-0.0040630775235716,0.894751786515268,-0.0109240083979055,-0.00619273910637167,0.00238018001121172,-0.121229587664905,0.0212148977736618,-0.0224027447650539
148,148,-0.0381311740715505,-0.00408849083291661,0.894738603916354,-0.0120984792817147,-0.0046848440675673,0.00204458475943704,-0.141160099376985,-0.00160287951448098,0.0219047463995248
149,149,-0.0382536817961705,-0.00410230917031318,0.894726487426937,-0.0126421767828556,-0.00346457866780392,0.00183517779802296,-0.120673478255051,0.0230412987931045,0.0355880458574674
150,150,-0.0383476044210316,-0.00409826664347144,0.894717497547501,-0.0128871362450943,-0.00247329081965525,0.00190495471759701,-0.112105951000236,0.00653415862317982,0.0445024893629496
151,151,-0.0384144785600753,-0.00407378035497309,0.894711205144007,-0.0126733949727098,-0.00151873702213819,0.00229054006973935,-0.0863078201721772,0.00830909791813378,0.0760600084107112
152,152,-0.0384684439757392,-0.00403301968952403,0.894706232223649,-0.0117243082185474,-0.000726964397397765,0.00289324418405745,-0.119459891382874,0.0641909556584383,0.0616606935864363
153,153,-0.03850719364211,-0.00397984915013066,0.894703219683071,-0.0106175142448311,0.000465991340517095,0.00358960436771462,-0.0583303871417137,0.0771757012794839,0.129773174895314
154,154,-0.0385284205752077,-0.00391813346661556,0.894702809070923,-0.00891418939480446,0.00175651043063527,0.00436133098337799,-0.101435905003663,0.0810751992673719,0.0673109194466437
155,155,-0.0385298173339513,-0.00385173451070547,0.894705640411113,-0.00729447262443793,0.00326089233519889,0.00509193574223765,-0.0763855729253536,0.056477997073679,0.107357906932127
156,156,-0.0385137113084382,-0.00378324651627062,0.894711442013054,-0.00599958650663467,0.00471452438193355,0.0058342769225557,-0.0726168942447292,0.0717456012331646,0.112937335772145
157,157,-0.0384816405720813,-0.00371009424783343,0.894719787800941,-0.00439660993157785,0.00620964055455744,0.00658819553973497,-0.0977927264586572,0.0603346454551877,0.135642827198156
158,158,-0.0384301121856364,-0.00362837973582269,0.894731083456376,-0.00256110736794399,0.00743514954263096,0.0074229426214112,-0.131848903356992,0.0528121919416195,0.113315621184215
159,159,-0.0383556314581835,-0.00353420151623268,0.894745731481797,-0.000768625917524959,0.00837056780000147,0.00839003360945437,-0.199172849176647,-0.0209979057973365,0.150483376543922
160,160,-0.0382547012723745,-0.0034236558940296,0.894764131452984,0.00160950622474908,0.00906553001463235,0.0095052386826058,-0.146216376466602,-0.00750875263816178,0.172200257126047
161,161,-0.0381315485102074,-0.00329941704703121,0.89478490225221,0.00514304727354317,0.00944954297585892,0.0109261762735764,-0.117443173139066,-0.0994405249255246,0.136879237415345
162,162,-0.0379884961405714,-0.00316406848350085,0.894807754987995,0.00944575087780229,0.00973868885413973,0.0126607148802087,-0.149989103633244,-0.16951675202781,0.168586426894055
163,163,-0.0378191882056676,-0.00301357734808872,0.894834740283273,0.0139655173812138,0.00990737900214795,0.0144005924277468,-0.138233541950852,-0.170074430513303,0.188866405224266
164,164,-0.0376172665814357,-0.00284393024870358,0.894867937719686,0.0187547526492499,0.0106424142166012,0.015720205692238,-0.0901376201780013,-0.191760390740763,0.254290808263485
165,165,-0.0373763733343845,-0.00265119793079738,0.894909520610562,0.0224052733761953,0.0119587209275657,0.0164657101853238,-0.0417153347364365,-0.190365348193545,0.282735017095878
166,166,-0.0370817803853817,-0.00241958684492442,0.894968177635028,0.0241674597710889,0.0145457455422465,0.0168421286540425,-0.0368759459735412,-0.222815694377748,0.252858702208405
167,167,-0.03673773496164,-0.00215202673525505,0.895042696229038,0.0255661760760717,0.0165639808914062,0.0169832888830516,-0.0667480809397297,-0.201384966300848,0.194118920072714
168,168,-0.0363663371923574,-0.00187284170763721,0.895120666685769,0.0263549847119389,0.0174567944337285,0.0166179544488822,-0.0937737085935039,-0.299280793636262,0.0779709170634438
169,169,-0.0359896588236339,-0.00160637966908027,0.895189914435453,0.0264669766949567,0.0177960308105549,0.0153748724718484,-0.0972491699680544,-0.336174556733554,-0.0321980409235568
170,170,-0.0356297338460843,-0.00137691086865642,0.895238634057422,0.0276544103431124,0.0167626353156261,0.0128025956044731,-0.151614627746685,-0.344515924294407,-0.264321148574109
171,171,-0.0352854948193268,-0.00114202200278904,0.895254506161194,0.0287430481950143,0.0146358125025878,0.00805944249471722,-0.0560741614637187,-0.27254063930286,-0.3493419447095
172,172,-0.0349422011525197,-0.000886142446162897,0.895247407918141,0.0288316030815136,0.0130850371986043,0.00155878859722103,0.0869619604443744,-0.265841114509724,-0.388054039988456
173,173,-0.0346013827134814,-0.000673281255336764,0.895238995914949,0.0282482233980909,0.0112376172865973,-0.00543504943547383,0.178605690593297,-0.186615933878226,-0.465828297178884
174,174,-0.0342645992189936,-0.000566878563348239,0.895250478950078,0.0265422861515156,0.00760886108842277,-0.0116413122746873,0.152534125221909,-0.130893785794596,-0.453916159353104
175,175,-0.0339334300741496,-0.000629726771750513,0.895302494455147,0.0236932817816797,0.00166162091505139,-0.01586899412119,0.0903478666414349,-0.0929822149496654,-0.396969673873669
176,176,-0.0336062579518271,-0.000911417175550732,0.895402161838839,0.0199481962202388,-0.0082008167340501,-0.0183754833530688,0.0251366635039914,-0.111620348197324,-0.286508724420146
177,177,-0.0332821183395913,-0.00136822593830126,0.895537772374098,0.0160142120644837,-0.0212777447402425,-0.0200295323595317,-0.0296383808327629,-0.144462817679696,-0.167561894785817
178,178,-0.0329635384184037,-0.00192309005908289,0.895700773848591,0.0129723076497687,-0.0357366738360961,-0.020446060844397,-0.0832375908080727,-0.189536616372622,-0.0516269160286641
179,179,-0.0326529607553472,-0.00249998605713455,0.89588188976526,0.00999767152917995,-0.0499852303590594,-0.019155058473673,-0.0139765664167662,-0.140132131099098,0.0675035798135052
180,180,-0.0323527585316189,-0.00302406157901911,0.896071064137981,0.00714853644735064,-0.0624792347901724,-0.0157171165387869,0.112080004546389,-0.104670169094615,0.25194738923032
181,181,-0.0320643352446659,-0.00349785084790873,0.896259686331347,0.0035792643429401,-0.0719531928457775,-0.00927695694423641,0.174589044926586,-0.0885658642051269,0.399836453457666
182,182,-0.0317860082341535,-0.00397177348605276,0.896455547612433,-0.000531256360838324,-0.0796254192032582,-0.000405826224913185,0.149543846965184,-0.173018842215612,0.525115730014335
183,183,-0.0315154611266908,-0.00444361982016141,0.89667161470161,-0.00484293904901043,-0.0847886359777517,0.00934405872916132,0.104410655683654,-0.302340595609949,0.689153914125999
184,184,-0.031250318126406,-0.00491107953323549,0.896919500419178,-0.00920351699581209,-0.0876420285912686,0.0188700973492301,0.0734512669265663,-0.392740556862857,0.812580881904156
185,185,-0.0309881857847235,-0.00537175178044779,0.897209546228422,-0.0132140193027908,-0.0875338152354589,0.0270109939009433,-0.00743461567785527,-0.468137004336365,0.84524468208797
186,186,-0.030715206233225,-0.0058353137656373,0.897550434242576,-0.0161928071262452,-0.0847325128253188,0.0339954185448478,-0.150528067078979,-0.494926007742456,0.770787939826373
187,187,-0.0304327952668151,-0.00630401494221303,0.897934028776625,-0.0186155285981575,-0.0804390162428466,0.0405810267883447,-0.323814678366668,-0.478401226753192,0.727835363874498
188,188,-0.0301616414546589,-0.0067638685468355,0.89834351941335,-0.0191201098951129,-0.075904091139876,0.0462515493886694,-0.49871430022751,-0.540222960688692,0.517266568851942
189,189,-0.0299226050146541,-0.00720031781451014,0.898760769748748,-0.0181075622828592,-0.0724951932141274,0.0507457467422765,-0.545339561964559,-0.625067635147098,0.381806057493488
190,190,-0.0297366846909772,-0.00759832041500806,0.89916670525154,-0.0169608252622902,-0.0712876434432444,0.0535130856946571,-0.443689628048641,-0.628824041382844,0.192572011379846
191,191,-0.0296104412711395,-0.00791594004899484,0.899573522401288,-0.0156166957745404,-0.0686516637852888,0.0541539416488938,-0.262353117385003,-0.66283736241891,0.176989836329437
192,192,-0.0295300820393186,-0.00816286209495594,0.89999137306765,-0.0140247051884748,-0.0644412070810451,0.0532078957499111,-0.173909586456982,-0.612620523849082,0.0629931088761777
193,193,-0.0294861780136072,-0.00840140590063403,0.900397825502411,-0.0121358576000701,-0.0592941210217598,0.0511422707317141,-0.152136547652764,-0.549635279201931,-0.0257243028667707
194,194,-0.0294693736819268,-0.0086940809457359,0.900770757991529,-0.00983113715364756,-0.0541515992909484,0.0478822309062053,-0.19355920747651,-0.549125928341765,-0.132508608783656
195,195,-0.0294703937950127,-0.00910354591074732,0.901088755851052,-0.00807640537860343,-0.0514938151332704,0.0438409943680244,-0.229864530861819,-0.552571953304143,-0.240407315326799
196,196,-0.0294912049446214,-0.00963744824889786,0.901361367448099,-0.00639049728560311,-0.0527510854038225,0.0391164858326815,-0.278416078907821,-0.591847034774214,-0.35896688791914
197,197,-0.0295382227724775,-0.0102548422408083,0.901605776821528,-0.00539831616959199,-0.0567360841112284,0.0337965544667888,-0.148781076879567,-0.642099858406019,-0.463235392589828
198,198,-0.0296088151437676,-0.0109454138014661,0.901812886486874,-0.00563467984993683,-0.0625143137160786,0.0280496626445874,0.0238685319397409,-0.608028676744788,-0.499114877416103
199,199,-0.0297002578472953,-0.0116984515401359,0.901973024919085,-0.00664996875999225,-0.0690219740661431,0.0218847700662455,0.130138163460072,-0.538039133461315,-0.522136712385807
200,200,-0.0298097605190015,-0.012502727779423,0.902075354306347,-0.00724893291934478,-0.0756195622074805,0.0156682225912302,0.111154884035931,-0.397165948273738,-0.60852693265737
201,201,-0.029964813727625,-0.013328463610103,0.902115224452813,-0.00902022835657047,-0.0808584166401945,0.0096119721997264,0.114726527553858,-0.441798699710896,-0.641310307690817
202,202,-0.030167119901851,-0.0141826405770717,0.902107386729961,-0.0117286771905283,-0.085777184927719,0.00335437300545312,0.100217750046862,-0.401325151148704,-0.658330663725207
203,203,-0.0303754435871445,-0.0151092341162671,0.902065399590238,-0.0151939737955462,-0.0900472675088555,-0.00293350320611783,0.0573751740970634,-0.390179730257028,-0.618484742397543
204,204,-0.0305488434858132,-0.0161530958628904,0.901997133065987,-0.0180571635223237,-0.0951218583527955,-0.00860934077040018,-0.147438024381105,-0.429656420275648,-0.562518936202074
205,205,-0.0306465601886981,-0.0173599763621759,0.901904726456013,-0.016406104528654,-0.101156492783638,-0.0134106991319074,-0.335852195828676,-0.574364666893842,-0.624258331924056
206,206,-0.0307120708343744,-0.0187665143906606,0.901785157274201,-0.0101898469777276,-0.10990516031626,-0.01825521479621,-0.0979767871510403,-0.613321605944854,-0.391650211596464
207,207,-0.0307735517875897,-0.0203443803702429,0.901632175988397,-0.000369447970528767,-0.121155969018211,-0.0239311368692744,-0.26784880282976,-0.481033615440615,-0.638286741694827
208,208,-0.0307666581087649,-0.0220409930790028,0.90143996088168,0.0102672627983256,-0.132288268333201,-0.0290988869248981,-0.0241242320783491,-0.399640984632066,-0.59548566538475
209,209,-0.0306259447419105,-0.0238017087130998,0.901203316672822,0.0197946743522109,-0.141159140980472,-0.0329557986700996,0.350658104255848,0.0225762851976033,-0.385373450874749
210,210,-0.0302850104585746,-0.025569909210265,0.900917928653548,0.0306437170722683,-0.147688256365533,-0.034418013379963,0.587485221316573,0.292159674104528,-0.095808894590304
211,211,-0.0296403284564512,-0.0275149807598741,0.900557602835157,0.046594442447021,-0.149543999467978,-0.0327214202298231,0.756742641943542,0.485924082476472,0.123965803255685
212,212,-0.0287345955183152,-0.0296716793365562,0.900124922367673,0.0654314814054674,-0.147285292754176,-0.0285245583675544,0.543140424790372,0.405923800469746,0.286518348166631
213,213,-0.0277209193231311,-0.0317807707912462,0.89966029017776,0.0825766144672725,-0.143101543884021,-0.0228814203764133,0.175840788350769,0.587012210888357,0.517130491124372
214,214,-0.0267532924845295,-0.0335839016335622,0.899204957030228,0.0964082165389461,-0.136815213825274,-0.0173715679766274,-0.0939821594505813,0.759491079383832,0.582088926451796
215,215,-0.025986460626362,-0.0348238115826945,0.898801165501765,0.104786575728677,-0.127139965793777,-0.0153525030757469,0.0863785520026584,0.931778664104339,0.699662616933119
216,216,-0.0254675748853023,-0.0353028514490189,0.898457636710436,0.103030239848061,-0.108131610317448,-0.0191349244899799,0.466625744735615,0.799761760164456,0.511195440019674
217,217,-0.0250949222832833,-0.0351936699116392,0.898154383367261,0.09323642606986,-0.0744430133169505,-0.0267201392034874,0.633425617129994,0.211101275066882,-0.0440517521986254
218,218,-0.0247999475192806,-0.0347955842049019,0.897888568210984,0.079216699758757,-0.034369957846027,-0.0351243347982674,0.523451704149457,0.0307154758236321,-0.462971620569662
219,219,-0.0245131504320868,-0.0344074393972105,0.897652225282743,0.0640893109953047,0.00263808572655341,-0.0413331532213104,0.522183690873716,0.020293688799136,-0.751656285494092
220,220,-0.0241639009560967,-0.034327297165424,0.897431800115963,0.0512609216248722,0.0307984548146308,-0.0424081060036519,0.6208439690791,-0.110595387639621,-0.944206348162909
221,221,-0.023700018200737,-0.0346007454573892,0.897190497561388,0.0416651249397938,0.0463639922657038,-0.0373783214129618,0.670870931763457,-0.13896421521051,-0.634343650330973
222,222,-0.0231682941866961,-0.035031676697031,0.8969372846885,0.0379129328122212,0.0513853721281004,-0.0282824708306754,0.345518809130969,0.0635140724961789,-0.14454201296047
223,223,-0.0226457400853928,-0.0355538005164334,0.896721659708011,0.037199976712388,0.0448575080572539,-0.0180763552982541,0.242849997021491,0.6082939378501,0.680072453286915
224,224,-0.022209066211124,-0.0360987560482768,0.896590273424629,0.0375478863327302,0.0263647119220674,-0.00755454080820486,0.149564106869567,1.1181084700603,1.44433006005672
225,225,-0.021934684492848,-0.0365961401414517,0.896587128661457,0.0360919173212177,0.00811003844351876,0.00260314687749092,0.283804233056262,0.991752354214791,1.63842286803125
226,226,-0.0218835148239141,-0.0370276995614714,0.896740988270663,0.0289961259847717,-0.00583207630674255,0.0140142871453494,0.163988530295828,1.13183102566277,1.35893243825627
227,227,-0.022003644346563,-0.0374380235545822,0.897018624290236,0.0174330915495758,-0.0188626346162919,0.0279412380300977,0.02628583444147,1.1274089503168,0.835038496536811
228,228,-0.0222023608714385,-0.0378502576369198,0.89736828191185,0.00406755406913816,-0.0289912973679393,0.041820011349755,-0.0940444517277729,0.931501601875552,0.552841249464008
229,229,-0.0223874497746809,-0.0382883225446344,0.897736482442074,-0.00813966684749812,-0.032983429652028,0.0535069051731109,-0.231727375016892,0.694054361947388,0.393347713332324
230,230,-0.0224671662748427,-0.0387767787688122,0.898068449794189,-0.0153731696603882,-0.031203434625321,0.0603563196616023,-0.375776162495975,0.832863485856372,0.360132686920761
231,231,-0.0224459395683164,-0.0393630957300643,0.898385232518991,-0.0171537814961199,-0.0284855616335272,0.0619113873014017,-0.359563184894018,1.08613575242683,0.329958979460362
232,232,-0.0223851757658263,-0.0400305839117393,0.898719125195573,-0.0152213652996544,-0.0248670707302025,0.0604999650117228,-0.271405566340255,1.17404061946255,0.106825629887363
233,233,-0.0222788297911539,-0.0407080853760726,0.899032380857723,-0.0126730212532584,-0.0219331768259636,0.0564490779770124,-0.243185357908325,1.15817325422696,-0.172253495110305
234,234,-0.0221209238859618,-0.0413246064082307,0.899287951425198,-0.00968827694338106,-0.0203061541085862,0.0505995783255911,-0.473208520532042,1.17333588445765,-0.508204141768413
235,235,-0.0219056449408154,-0.0418091445680448,0.899449405529607,-0.00623692014140143,-0.0203910072315515,0.0433934867920217,-0.838968323557937,1.16091824492527,-0.820281534442204
236,236,-0.0215623988613601,-0.0421509866739687,0.899514686772019,-0.00295011781367727,-0.0219208246518162,0.0334931743823484,-1.0610488110072,1.16811594982792,-0.943978712058229
237,237,-0.0210958844070604,-0.0423964008152997,0.899510373913128,0.000370773177395448,-0.0233307778515053,0.020636666064171,-1.01141135764239,0.920699956198638,-0.998403396720885
238,238,-0.02061318686312,-0.0425599998709751,0.899443545441711,0.00348075091595785,-0.0229498540467152,0.00683985352873944,-0.790476443046001,0.538335268062615,-1.03763444759341
239,239,-0.020220880164906,-0.0426570618415897,0.899320981806373,0.00675458019796261,-0.0207031214155604,-0.00627614406373157,-0.681519575001879,0.26367327062568,-0.992058499258374
240,240,-0.0200249550273872,-0.0427037158023663,0.899148710662076,0.00878981737753066,-0.0167787971103777,-0.0165169887065733,-0.585076676240774,0.0941138362598994,-0.912726315885353
241,241,-0.0200585658382453,-0.0427166134748155,0.898913589765489,0.00895249391063221,-0.00994082529209108,-0.0235134457381796,-0.376382787351558,-0.0168753829495478,-0.742310774733343
242,242,-0.0202507079294899,-0.0426844792379509,0.898617283515895,0.00684819067095844,-0.00179832417639822,-0.0283805483588781,-0.171528858275016,0.0509832171572586,-0.572996200035236
243,243,-0.0205507699976745,-0.0425827069711513,0.898285324271873,0.00271250747089126,0.0064443657406373,-0.0315131374616935,-0.082514163042805,0.209185913305491,-0.350724203951919
244,244,-0.0209082083424477,-0.0423874898667199,0.897940136829336,-0.00177650650505241,0.0155062900952708,-0.0329073027209975,-0.166362514153483,0.321537943838588,-0.15035121315661
245,245,-0.0212725612738537,-0.0420757868833223,0.897600784814706,-0.00700839992272421,0.0229496795105025,-0.0332800529612969,-0.248115282399814,0.470979452365969,0.088023104410156
246,246,-0.0216762824726271,-0.041644776407909,0.897235752160193,-0.0143562439867015,0.0309384846774527,-0.0323953143222178,-0.378751728749961,0.524872535196628,0.316549228423961
247,247,-0.0221529288175956,-0.0411106395123884,0.89683222428204,-0.0215143796746007,0.0409980963702,-0.0303217493509782,-0.621576970574701,0.608724918061047,0.363183910415427
248,248,-0.0226537126074602,-0.040479783597229,0.896433103282586,-0.028048935217536,0.0498900419224234,-0.0275649124749627,-0.760031901068586,0.630994207282958,0.376148786291004
249,249,-0.0231297365281857,-0.0397591809583554,0.896078940323912,-0.0326031333042808,0.0575243823326201,-0.0242418863383338,-0.714261670278902,0.569861621588702,0.311713236897268
250,250,-0.023531965398555,-0.0389562144052546,0.895808306977164,-0.0349153197815613,0.0648187318040088,-0.0206644392183024,-0.515279565188802,0.374036286701089,0.251752287144493
251,251,-0.0238136540867921,-0.0380228808378212,0.89559398293819,-0.0351040027272065,0.0729178442453036,-0.0154720264918025,-0.194021308644378,0.236786459360386,0.154372062243138
252,252,-0.0240073203059092,-0.0369557199437882,0.8954052008978,-0.031744142660469,0.0813876130407551,-0.0084640460816983,0.113931389028486,0.014848582670155,0.362754388938983
253,253,-0.0241826968984411,-0.0358285641752333,0.895275511400504,-0.0237816777177845,0.0853743915849154,-0.00131221474259866,0.208292885561117,-0.25602977219848,0.536035041246569
254,254,-0.0244094440498096,-0.0347151525420682,0.895239783397738,-0.0167124227372309,0.0842198656662537,0.00427289518308231,0.26114922478363,-0.461600670260037,0.808788327334161
255,255,-0.0247570939267217,-0.033689510909879,0.895334189115134,-0.0126283921106168,0.081331514940214,0.00748347812083509,0.035132820896548,-0.428648675414437,0.942992894727886
256,256,-0.0252900906308889,-0.0326921493056771,0.895627877942563,-0.0130861006415652,0.0809117585005562,0.0100351471189063,-0.125733345623354,-0.410456883342046,0.706560146410119
257,257,-0.0259613934270625,-0.0316747284641,0.896098098853937,-0.0186740501867187,0.082825832044306,0.0125195384453874,0.465704743111695,-0.591970742009321,0.288204394570633
258,258,-0.0266735723576239,-0.0307279814530448,0.896645020092864,-0.026207646382825,0.0832105650656384,0.0136384325437573,0.745619584844229,-0.479880631165922,-0.126185033468682
259,259,-0.0273297269843123,-0.0299422172544668,0.897169561361929,-0.0312414938541148,0.0819486514496619,0.0130455715078021,0.742038774941238,-0.090538862941504,-0.508450237054842
260,260,-0.0278334284720966,-0.0294068586806326,0.897573584788186,-0.0316833306186387,0.0771209995764668,0.0102226282631784,0.841956537332646,0.123683980972775,-0.801845730652828
261,261,-0.0281737403343651,-0.0292110263348613,0.897834166890842,-0.027323798888339,0.0651882055888871,0.00200802267308408,0.747042181331041,0.30845401590399,-1.05159517460915
262,262,-0.0284156436001205,-0.0292942041418649,0.898026096141526,-0.0214792459061783,0.0459924735010563,-0.0112017790391438,0.540781141558991,0.449925590631938,-1.19296834027251
263,263,-0.0285768272372915,-0.0295195774152518,0.898195328928342,-0.0142324358197483,0.0214383314354524,-0.0251258314466617,0.441722483850156,0.538473043778499,-1.07503716088032
264,264,-0.0286747704730442,-0.0297499035742448,0.898382217165683,-0.00704217521037119,-0.00285395221338217,-0.0353951991391164,0.516030393213237,0.420913652850322,-0.674058899390122
265,265,-0.0287265200593114,-0.0298479448495636,0.898621113574516,-0.00341278748537236,-0.021846200164062,-0.0376635222479287,0.685298303411918,0.0852527257306007,-0.0427915920220494
266,266,-0.0286925792115691,-0.0298124674410193,0.898899061431429,-0.00240285963074359,-0.0325361721807088,-0.0291586071717386,0.885581587539597,-0.514396288395937,0.368599420827018
267,267,-0.0285608465719457,-0.0297311101113353,0.899193313055631,-0.00125360913763987,-0.0373960827857138,-0.0138544382230354,0.7688170683736,-0.860536830587367,0.895138215952816
268,268,-0.0283891351976369,-0.0296019326134891,0.899516378921139,0.00421921720408998,-0.037853704206157,0.0043571727849016,0.304152069946099,-1.0751570681229,1.17019467177911
269,269,-0.0282358200721821,-0.029425448550442,0.899876552397795,0.0102838818394996,-0.0352414578902899,0.0225437492673505,-0.20452676329511,-1.43499556107908,1.43858905662038
270,270,-0.0281601722390881,-0.02920432080761,0.900278455758692,0.0152542129002385,-0.0345661186303003,0.0376443358883137,-0.303218681006452,-1.43246804048984,1.50255651004616
271,271,-0.0281972916118734,-0.0289059209772658,0.900740153219304,0.0165191632945003,-0.0302922617878412,0.0512886805080891,-0.266080326010843,-1.64470341927959,1.24133469469801
272,272,-0.0283081473855206,-0.0285304669808809,0.901251982845076,0.015512123439199,-0.023922503118802,0.0648660313689969,-0.418050274177514,-1.57787428496575,1.15973129440851
273,273,-0.028441438960809,-0.0281307820463055,0.901774325147511,0.0127251090797306,-0.0183288432024975,0.0761935727724428,-0.437990513218022,-1.44922727438234,1.06476648512198
274,274,-0.0285457200232322,-0.027759322250171,0.902267188355842,0.00914325143335427,-0.0142912260951263,0.0831983480085974,-0.39414240345608,-1.27225627406115,0.864288607209223
275,275,-0.0285693766567113,-0.027468376028295,0.902691061700864,0.00442113991905415,-0.0120917271116922,0.0842474485342477,-0.216945684007092,-1.17425021993829,0.396459304896888
276,276,-0.0284558036017119,-0.0272425907283943,0.903058947675267,-0.000120234912970292,-0.00962659687193393,0.0789170399469253,-0.0819233679493793,-1.15940366261046,-0.117166366846426
277,277,-0.0282394978781178,-0.0270478705303373,0.903397037116951,-0.00351197810830526,-0.00543615777299368,0.0684585945544337,-0.0342379754460978,-1.13182989124843,-0.71555587396925
278,278,-0.0280053933666119,-0.0269083567521337,0.903687394116274,-0.00673007740562878,-0.00131171326311841,0.0552375035969648,-0.113847019544664,-0.908342716019347,-1.06255140306294
279,279,-0.0278385073646216,-0.0268479138755878,0.903912251627566,-0.0105063739135774,0.00104837963753359,0.0416314887719368,-0.217515025357923,-0.761985157257345,-1.22647298199984
280,280,-0.0278240082960293,-0.0268901012410307,0.904053140727195,-0.0131593837191702,-0.000341457466300142,0.0292428440149185,-0.147374857282137,-0.668236823877958,-1.28962267759129
281,281,-0.0279962310557845,-0.0270221349448566,0.904107762661411,-0.0172421394687217,-0.00563496505959201,0.017802468751296,0.135117565875318,-0.532542580095769,-1.22947676957462
282,282,-0.0282987309110526,-0.0272283362046197,0.904098040561552,-0.0225564149683981,-0.013582974898057,0.00596741221277628,0.344637031148242,-0.505123579660886,-1.13999278519045
283,283,-0.0286806439746632,-0.0275280113836949,0.904037259019038,-0.0272938886440171,-0.0223491545597151,-0.0054188811375228,0.398497857455558,-0.620832415189607,-1.13122314898296
284,284,-0.0290909835015461,-0.0279410555651571,0.903932333164246,-0.0300952548730139,-0.0330851182820268,-0.015336727571429,0.247813028410908,-0.706841807868089,-1.187353505046
285,285,-0.029478457489422,-0.0284879610140125,0.903783234081049,-0.0289260939363976,-0.0453636506281516,-0.0234181555404094,0.0888290577648266,-0.797073765254548,-1.2313615078392
286,286,-0.0299164219620579,-0.0291611695431066,0.903580812782959,-0.0238270983597428,-0.0612330933014074,-0.030649286579772,0.0122683405930634,-0.79139848436396,-1.21782363559337
287,287,-0.03043887599446,-0.0299491781087842,0.903321593809593,-0.0164274035010674,-0.0771030289358818,-0.0379228860560918,0.0882169334488103,-0.884415784364714,-0.944137154488607
288,288,-0.0309351723957081,-0.0308656751032429,0.903009076251834,-0.00792562734536069,-0.0909013974593777,-0.0445671367449658,0.235597152498206,-0.8153626336239,-0.551192640096757
289,289,-0.0312946598103237,-0.0319227665840965,0.902646588489227,0.00210782549525797,-0.101665834664777,-0.0494954219749374,0.145952910474505,-0.474175647710845,-0.153027387273353
290,290,-0.0314067148196114,-0.0331309752961887,0.902237519930829,0.0110626453405299,-0.110932209534635,-0.0519173878452921,0.0905886717003063,-0.148451788320935,0.0813906971032542
291,291,-0.0311826765638754,-0.0346640186214372,0.901757896762436,0.0205625753495349,-0.120607382136741,-0.0492980511175446,0.0923316214809413,-0.0104965910915993,0.109215998541453
292,292,-0.0306955066063454,-0.0365130148937084,0.901202823831417,0.0321810942486064,-0.131017595164815,-0.0422276591505202,0.000596662005664877,0.172140029079627,0.397266248676841
293,293,-0.0300772811779236,-0.0384132997422158,0.900605599038979,0.0448471073334581,-0.136989217177464,-0.0340574602811004,0.146328475660004,0.25424568922967,0.507959371686655
294,294,-0.0294605807969054,-0.0401005081836013,0.900001056864208,0.0561599911633299,-0.137763613087187,-0.0275946225820222,0.299859354832954,0.468822028631834,0.75144614857243
295,295,-0.0289786323238342,-0.0413109410172958,0.899426001658449,0.0625316251319877,-0.130035976772579,-0.0242507878246389,0.0341064418281266,0.655204220925521,1.0267696132274
296,296,-0.0286196056534012,-0.0419663898857288,0.898875748440261,0.0639549873090764,-0.109624454121217,-0.0250341081815042,-0.0761801639452188,0.78527586016923,1.11066118826683
297,297,-0.0282957776660997,-0.0422430105744305,0.89833388488844,0.0609179712599709,-0.0776263132237628,-0.0276561240573077,0.0380068663523309,1.13297504131443,0.637666218903362
298,298,-0.0280269435608296,-0.042259541901938,0.897818636071877,0.0542905652438255,-0.0428132058052146,-0.0323879356164961,0.207405468792811,1.29429250790423,0.123699686258123
299,299,-0.0278322715313115,-0.0421341950503078,0.897342931295981,0.0487247550890905,-0.0115997639216426,-0.0370433975449086,-0.00244949237995913,0.794578406942936,-0.749593370548188
300,300,-0.0277300656810032,-0.0419840412130551,0.896913671768127,0.0449037182999248,0.0141341927874197,-0.040257604846729,-0.0767896170485998,0.323159970515266,-1.27447293524207
301,301,-0.0277744168331306,-0.0417080667972033,0.896485908631019,0.0422222543758659,0.0358781165856962,-0.0437398090155242,0.0852477991358573,-0.276393295579412,-1.2055879679466
302,302,-0.0279539094679179,-0.0412282911056073,0.89605388819534,0.0374136529284752,0.0552883088501834,-0.0486552362576005,0.31662582002334,-0.537680562747146,-0.993144750844887
303,303,-0.028187584034479,-0.04069469395997,0.895677614411795,0.0283024267681977,0.0682296746430843,-0.053281426609372,0.828085791240447,-0.458838621674146,-0.514729677236363
304,304,-0.0283937243155684,-0.0402567842958382,0.895415293798942,0.0165349440199483,0.0737513844520521,-0.0547465164533216,0.904295962267244,0.0821047889573228,0.47044259181425
305,305,-0.0284897069827311,-0.0400639639571562,0.895323682475114,0.00834416097081387,0.0723602269825125,-0.0502279059812452,0.764568484003341,0.582614487937682,1.51393655393301
306,306,-0.0284418810353532,-0.0401879538646074,0.895445761610171,0.00583501735083349,0.0653215174556454,-0.0347368886379744,0.504198460637493,1.07036409926174,2.17197722001777
307,307,-0.0283039638644033,-0.0405268155661066,0.895740052509505,0.00852031667720874,0.0522850616690716,-0.00989725872185254,0.359202370764997,1.24332097858454,2.27251478483718
308,308,-0.0281238459089726,-0.0409711475570661,0.896136100320918,0.0134517278167037,0.0327069215696891,0.0181917709633786,-0.0046973608214837,1.32075935968484,1.77366715577536
309,309,-0.0279497766722423,-0.0414132411911134,0.896563132865228,0.0168180707842118,0.0114824164050649,0.0434620602703169,-0.0760000312712093,1.17144387790502,1.17789400822003
310,310,-0.0278304917652301,-0.041746640308438,0.896949812917309,0.0170693369183628,-0.00422146039047559,0.0598891401392556,-0.0784946540146071,0.84350966382594,0.642962089277284
311,311,-0.0277898697604977,-0.041938864719338,0.897319435738072,0.0141790934206339,-0.0115094959099044,0.0664561291015318,0.00992605537111794,0.564957713650159,0.382589882338158
312,312,-0.0277956012701186,-0.0420635915865087,0.897717645356345,0.00871695749868536,-0.010743685029961,0.0670474478316158,-0.104277096501603,0.43765579513308,0.0889008735249444
313,313,-0.0278125453416325,-0.0421732789397318,0.898105649560881,0.00365864505469371,-0.0041537413696793,0.0634368620360915,-0.44634485866091,0.436549843802478,-0.351428827028899
314,314,-0.0278052055258261,-0.0423188547742871,0.898443904353495,0.000478278709444351,0.00314065942128191,0.0574329743752216,-0.69459282573329,0.51230765783947,-0.643458394736802
315,315,-0.0277375284677441,-0.0425499725757638,0.898692474888217,-0.00065054834687216,0.00762361113675266,0.0505123911898431,-0.895554414092171,0.74165192003837,-0.785095389560417
316,316,-0.0275620927250488,-0.0429410748211492,0.898849279717188,0.00108567158945845,0.00931052501961692,0.0416054115705839,-0.899694618011769,0.799665921477318,-0.957960295403078
317,317,-0.0273024067557978,-0.0434573330554018,0.898939343312027,0.00423110508991369,0.00700117635116156,0.0295391379428373,-0.721927213432849,0.939979138805807,-0.966818303762808
318,318,-0.0270287526466182,-0.0439840997060978,0.898963787495201,0.00768483800993354,0.000542073023225917,0.0160577607137129,-0.590723814592898,1.13832124601917,-0.929165832225545
319,319,-0.0268121505651033,-0.0444072659711228,0.898924014887537,0.0102534077993436,-0.00540196343455433,0.00313100747697102,-0.423419973160241,1.09491526984344,-1.00638961455643
320,320,-0.0267243758253305,-0.0446133794375336,0.898821746227829,0.0101397462752141,-0.00775905860008866,-0.00763345225546624,-0.4110297907286,0.924457660606951,-1.04029490552195
321,321,-0.026786715356254,-0.0445597180520733,0.898638852096458,0.00559442814735223,-0.0050560180944959,-0.0166066164656681,-0.37774294100429,0.713881209283373,-1.01774921514015
322,322,-0.0269524640039552,-0.044322364295457,0.898377137736284,-0.00202482469281733,0.00181255929732042,-0.024754656474709,-0.290617684616293,0.56322625881033,-1.02889089751955
323,323,-0.0271914235936895,-0.0439664573994824,0.898068461729543,-0.0105649883427945,0.011253681956425,-0.0317036077297467,-0.129843943486648,0.417601567050693,-0.841826151335594
324,324,-0.0274729115535543,-0.043556807117052,0.897743956623938,-0.0184361099972515,0.020156678986412,-0.0374347251373661,-0.132070000994127,0.380926759294521,-0.550605482534556
325,325,-0.0277658214774147,-0.0431577943322299,0.897433710486433,-0.0245641967608536,0.0269576252271201,-0.0411549018416574,-0.126771873024069,0.41824304846903,-0.363806284305662
326,326,-0.0280711558503328,-0.0427814542500717,0.897130435635002,-0.0275916831397961,0.0318321055627735,-0.0419076405997594,-0.0770898939981284,0.472333123400822,-0.163453289738122
327,327,-0.0284095298754148,-0.0423850775356764,0.896818974521538,-0.0277244615249446,0.0338720425566943,-0.0400135066303016,-0.230814842319478,0.571085519064073,-0.0240843852309296
328,328,-0.0287788654840192,-0.0419507388915376,0.896515041033697,-0.0271942204519626,0.0336244689810708,-0.0366621019524707,-0.197078359332235,0.540446272513788,0.263111229483983
329,329,-0.029176910238107,-0.0414606361877636,0.896231521556955,-0.0272735775222873,0.0329533336770187,-0.033029704812826,-0.181434037525873,0.485965281902612,0.548575782108527
330,330,-0.0296012642770104,-0.0408970321586077,0.895978239852495,-0.0286683802212948,0.0330533287147783,-0.0298342067242131,-0.436796345831088,0.340662354672687,0.69103881191639
331,331,-0.0300766057055521,-0.0402630270267536,0.895738426241227,-0.0318612477540546,0.035273134571019,-0.0278180668071757,-0.641544843949466,0.190933480078496,0.606893685290178
332,332,-0.0306041834069701,-0.0395713401220133,0.895505414305147,-0.0372085264259904,0.0393304076196246,-0.0265306604751977,-0.629345663375499,0.274277317198373,0.416689674284305
333,333,-0.0311464362031149,-0.0388182710438726,0.895299967033123,-0.0424144842509689,0.0467609103096629,-0.024969051243781,-0.435383138949254,0.217424270976733,0.142339180783121
334,334,-0.0316658313738271,-0.0379994956738843,0.895140282855455,-0.0472086386337352,0.0557680827590695,-0.0229320867304314,-0.557911923497566,0.162954427300901,0.0913232574973955
335,335,-0.0321247634679251,-0.0371101988851486,0.895042514564346,-0.0506423605773925,0.0662588924471752,-0.0181022503660305,-0.680190508400007,0.194848081824962,0.345286710218112
336,336,-0.0325203664267589,-0.0360918583596565,0.89502133874057,-0.0477692101009493,0.076988266175473,-0.00657322194271859,-0.392348256425547,-0.0185385110934383,0.787010429926624
337,337,-0.0328774453767262,-0.034947503000224,0.895060683669765,-0.039060295135793,0.0762690340741694,0.00739065889221781,0.66498012829017,-0.381362662954807,1.44039652568919
338,338,-0.0331997622175849,-0.033764657959569,0.895131403408794,-0.0286538470572329,0.0672151837164023,0.0204539137459417,0.724947288532788,-0.0381868871575751,1.89275159253239
339,339,-0.0334910215559478,-0.0326311500894654,0.895206154561127,-0.00994568078480319,0.0655101319734804,0.0310709718319041,-0.173828626999173,-0.0815805232091175,1.15044590603952
340,340,-0.0337548426827056,-0.0316349820692181,0.895259275177863,0.00103566867279141,0.0667318548762294,0.0344477180239751,0.431186866537537,-0.0158891874581185,0.368574038928956
341,341,-0.0339903519888754,-0.0307657468448114,0.895299441293201,0.00235836483310475,0.0698615201405738,0.0274115326047099,0.639274834924038,0.0362120820179036,-0.386878508313287
342,342,-0.0341943268899767,-0.0299656565797282,0.895347569526635,-0.00209539366285566,0.0722771117408958,0.012924899108906,0.425844332853788,0.124365169519632,-1.0803880550477
343,343,-0.0343673476036118,-0.0292513431752506,0.895397263810064,-0.00900054835260305,0.0768340818443701,-0.00451287903120497,0.40949797225524,0.0635488255332874,-1.43495311329109
344,344,-0.0345107553158858,-0.0286391598503348,0.895440768437857,-0.0140754744164383,0.0808458037480014,-0.0200650310392397,0.539722221879886,0.0298667448934,-1.52836013723615
345,345,-0.0346264902551862,-0.028145031371457,0.895468625879493,-0.0141019440425762,0.0783550655777354,-0.029723221262114,0.338929132524371,-0.134090116202091,-1.50335183966827
346,346,-0.0347057448100065,-0.0278345598586703,0.895437211834576,-0.0105441817354828,0.0652700335567143,-0.0340745316728434,0.448115307527061,-0.208590448909524,-1.20166388436322
347,347,-0.0347483647069891,-0.0276964466563255,0.895356308610656,-0.00615389233163048,0.0441106078436261,-0.0366162180402618,0.657855955530056,-0.04044487939182,-0.687344604499634
348,348,-0.0347691491786089,-0.0276304429812769,0.895293380674953,-0.00118819198537274,0.0228820123414495,-0.0367336607144652,0.698384765333122,0.0263594801145769,0.0187399484082859
349,349,-0.0347823090099982,-0.0275363423278323,0.895313171164815,0.00365181345680995,0.00438468902282417,-0.0339653086033936,0.517604349668426,-0.20295849963072,0.674465008734009
350,350,-0.0348014718157456,-0.0273142531600097,0.895477751644431,0.00594061287879685,-0.0108567994382775,-0.027696899996539,0.528054121962085,-0.40532444219169,1.23323871414291
351,351,-0.0348139230617689,-0.0269118768099836,0.895831689473472,0.0063468716315497,-0.0209920841534162,-0.0152821802050481,0.712755996237216,-0.783524418048863,1.55189556778816
352,352,-0.0348101353760859,-0.0263945391880145,0.896331664978095,0.00642328142958357,-0.0259103320972207,0.00308716438196824,0.753047403664548,-1.1756483099854,1.69774709881012
353,353,-0.0348081553112737,-0.0258392345732749,0.896905592682463,0.00635189871419028,-0.0268691687698039,0.0236560096313267,0.577528924100813,-1.26976591353136,1.52191260612423
354,354,-0.0348259707761421,-0.0253232650152605,0.897480474929369,0.00859275870355337,-0.0234263172454128,0.0424902647569846,0.139060075172301,-1.41515356710463,1.03050354980778
355,355,-0.0348815889028723,-0.0249242484129798,0.897982446275676,0.0116707797803375,-0.0192165352756509,0.054720359540858,-0.157236575039675,-1.48124320051123,0.517272471218088
356,356,-0.0350180876387746,-0.0246541952737129,0.898411830163482,0.0131524017969544,-0.01560681214017,0.0587817886988368,-0.384543431631051,-1.51788076836467,0.0151531352719208
357,357,-0.0352235029147771,-0.0244608733147926,0.898815738589987,0.0116153252576034,-0.0130864077853936,0.0567628073233065,-0.446170660387267,-1.54436225495034,-0.222678534685835
358,358,-0.0354333539633678,-0.0243264251309684,0.899188773990474,0.00752898917285115,-0.0128974485545843,0.0506984530958745,-0.356104696913559,-1.35130741525362,-0.409460083806298
359,359,-0.0355829751238559,-0.0242339106948149,0.899524281415089,0.00194399286319335,-0.0146494772775149,0.0428343764824764,-0.241739705107908,-1.180609831729,-0.477513178402639
360,360,-0.0356075042914372,-0.0241671317878062,0.899815176954216,-0.00170534969469295,-0.0166131044480235,0.0360090407539822,-0.270586815135382,-1.04179969556864,-0.505052783437525
361,361,-0.0354252323784467,-0.0241073920021412,0.900062802530679,-0.000575324870787741,-0.0181206132129226,0.0312501210568259,-0.228155007798542,-1.02179825652399,-0.472664764194521
362,362,-0.0350795830308529,-0.0240672662667665,0.900270890509316,0.00434578583883098,-0.0182622256323257,0.0270753439986857,-0.0487689224029609,-0.982253512835928,-0.35292945558574
363,363,-0.0346932678726272,-0.024077324460066,0.900436887872539,0.0114369741688917,-0.0180292897645989,0.0233282355049229,-0.0035822443614272,-0.951304492976136,-0.317460814920399
364,364,-0.0343888604343527,-0.0241675158935497,0.900558493582112,0.0178829097765159,-0.0198741847174722,0.0197241264737504,0.0823530303854758,-0.834089767877981,-0.326725459120379
365,365,-0.0342887424602011,-0.0243672851801109,0.900633156187378,0.0208617921278455,-0.0242292500679028,0.0157589545201985,0.142552868833832,-0.645721808075291,-0.431316781291737
366,366,-0.0344551570272496,-0.0246585544333128,0.900664398171856,0.018997915666195,-0.0320362145146911,0.0105808377636819,0.138111195909624,-0.60328549814084,-0.564528352041054
367,367,-0.0348065545074558,-0.0250216756403695,0.900659419556999,0.013078303777519,-0.0421003366586081,0.00510357016654388,0.181398186985106,-0.656751079526978,-0.695177449551882
368,368,-0.0352494701734396,-0.0254835550365556,0.9006193931393,0.00489718109422812,-0.0535100736200368,-0.000653700511764208,0.26912719878898,-0.708758891341692,-0.774087548253626
369,369,-0.0356903946448516,-0.0260712541066261,0.900542902328538,-0.0046290364964032,-0.0652562552822021,-0.00687623635856133,0.393767684725915,-0.73394603690457,-0.769775842184664
370,370,-0.0360357128122366,-0.0268120085399509,0.900425436251131,-0.011859845900863,-0.0767149171245376,-0.0131202518860488,0.303381003274668,-0.839277146007918,-0.699463529766296
371,371,-0.0363296134574562,-0.027716795181756,0.900262062250084,-0.0136300837776519,-0.0889257307145618,-0.0208698949357371,0.101882441356678,-0.935423378459758,-0.720958897420741
372,372,-0.0366342534814009,-0.0287688654199659,0.900057395211216,-0.0119892651414237,-0.102772210715463,-0.030420158497711,0.101563614634868,-1.01861291613229,-0.666922535772802
373,373,-0.0368828934386481,-0.0299527322751769,0.899817222207068,-0.00598248121311795,-0.117066036980596,-0.039728033933163,-0.0362207166936159,-0.79199246578613,-0.699070658841156
374,374,-0.0370088704320735,-0.0312512096933741,0.899545145030698,0.00234503474925854,-0.128242046790968,-0.0470408040959723,-0.197820551500882,-0.467339300105013,-0.686665529144972
375,375,-0.0369456329817785,-0.0326454676290763,0.899242958711692,0.0108612937816498,-0.136594094647389,-0.050681532092433,-0.379545986101594,-0.248830674918409,-0.652998544055022
376,376,-0.0365957799192103,-0.0342851860543607,0.898872822278837,0.0200404605595148,-0.144337595704973,-0.0479595717079559,-0.536435478551711,-0.0726619414099722,-0.71072954611702
377,377,-0.0360034593809047,-0.0361797561564857,0.898430907655337,0.0315687124179742,-0.151333099226251,-0.0404931941399816,-0.507747305223338,0.208068685012504,-0.28423746331895
378,378,-0.0353145761521493,-0.0381000090597371,0.897969715511079,0.0452459873649027,-0.152095424694903,-0.0314232784803263,-0.410806875579176,0.0945123443367166,0.562412272489504
379,379,-0.0346751758168076,-0.0398183958002046,0.897542837268359,0.0560413127318182,-0.148300807657696,-0.0228143504657007,0.0609638136445608,0.058692626761455,1.5946396730934
380,380,-0.0342315697612504,-0.0411089230964183,0.897205408880337,0.064800229358484,-0.138647345451611,-0.0160747787750792,0.187618864658514,0.555553392328027,2.69940548522021
381,381,-0.0340467232888531,-0.041832712304202,0.896973733995666,0.0662270898870348,-0.117011013960419,-0.0121112277309997,0.764137122606413,1.24975330442763,2.50434725407906
382,382,-0.0340239162541278,-0.0421423021467256,0.896818093747134,0.055794548528383,-0.083306285697273,-0.00957401005879472,1.1259769300503,1.24969523179836,1.29247219745111
383,383,-0.034070091559382,-0.0422492851828277,0.896723183279892,0.0380435051215038,-0.0489495226198772,-0.00762264727699424,0.888355203876279,0.640212561011846,0.183524446859269
384,384,-0.034091625441272,-0.0423641515051821,0.896668125646632,0.0184273119487295,-0.0206556757509256,-0.00526356558194127,0.298559126602228,0.139949468298264,-0.937764506877545
385,385,-0.0339939708246201,-0.0426963249565981,0.896625826317984,0.00344015175836642,0.00404720047667959,-0.00234052970246079,-0.0903150489339342,-0.456052733846519,-1.39685798467033
386,386,-0.0337311071465413,-0.0432925513477912,0.896573230265095,-0.00128613137162205,0.0146708046305851,0.000199123470097419,0.102449368432399,-0.848108294690605,-0.99115222330258
387,387,-0.0333659838577863,-0.0440122030246183,0.896525487359065,0.000217457216257115,0.00773060167638209,0.00162954446450566,0.418330234138494,-0.392207565803015,-0.0812891477662518
388,388,-0.03296664489964,-0.0447838994802772,0.896508549802242,0.0113536851275722,-0.00241673153824622,0.00419841571463081,0.265807267618242,-0.021805891956511,0.443033542527813
389,389,-0.0326008297492502,-0.0455373074468765,0.896548105908701,0.0258544047393184,-0.0171251706823848,0.00743878590782665,0.0848596857408354,0.631878276008696,0.939729249083335
390,390,-0.0323360601715433,-0.0462030194395764,0.896669514794642,0.0340561407358217,-0.0306637948446667,0.0109549368974418,0.0112188418940207,1.0494699901249,1.12155811329519
391,391,-0.0321957192340633,-0.0467902594392082,0.89691391618302,0.0335799670747403,-0.0379975754691675,0.0164798224764325,-0.0354999618825012,1.35695417342475,1.06632198650201
392,392,-0.0321342627186926,-0.0473472966895777,0.897262350768623,0.0266664601580839,-0.0402247362410991,0.0237797180633079,-0.179720475984726,1.21124249604702,0.566440847036307
393,393,-0.0321159423668535,-0.0478630662083181,0.897649273822504,0.0147657466115884,-0.0383446295684341,0.030909307451342,-0.188783150875859,0.917108659843735,0.0383389242226937
394,394,-0.0321050693635809,-0.0483253687838837,0.898008445488891,0.00205057123014958,-0.0337909466809084,0.0364545092240001,-0.165323338224281,0.665731485653394,-0.314800434839695
395,395,-0.0320659823089015,-0.0487209552965843,0.898273064970489,-0.005584281655141,-0.0280103257295782,0.0393199037599211,-0.0936471797765626,0.556420411324066,-0.415652643275756
396,396,-0.0320365589231961,-0.0490284763077162,0.898428552339784,-0.0062345657779208,-0.0206023236373652,0.0384647286909633,0.0410802896142958,0.729571561125347,-0.277700025326816
397,397,-0.0320406304247213,-0.0492561539377888,0.89851714245613,-0.00324442705783868,-0.0116819570926315,0.0345300491232366,-0.236573233319289,0.81401687944635,-0.342827165290736
398,398,-0.0320213645266522,-0.0494337229774379,0.898556592556353,0.000163892038349369,-0.00450490902778706,0.0282735680658291,-0.548138383121473,1.01451570268555,-0.394459530576122
399,399,-0.0319217865259283,-0.0495902174358534,0.898564345209705,0.00275918688429556,-0.000204784953337049,0.0213061150363166,-0.70252232092418,1.13706890021264,-0.528612679149543
400,400,-0.0316849032094355,-0.0497544929076868,0.898557902313532,0.00389559314069686,0.00141393380046554,0.0150796882874757,-0.661778761105851,1.04653099369763,-0.545628118587694
401,401,-0.0312157424429964,-0.0499503681167459,0.898533862361109,0.00686367916246685,-0.000424256784179865,0.00965642002269441,-0.643320008323199,0.817077900087485,-0.430217443809253
402,402,-0.0305526892342757,-0.0501583926641602,0.898480377059197,0.0128174168261661,-0.00565585399974848,0.00498589044837279,-0.607745889785564,0.689692117703533,-0.232455344879545
403,403,-0.029838845916085,-0.0503430934857398,0.898402884589734,0.0200338165983246,-0.0116996853531299,0.00126717457915721,-0.380869395899542,0.659727062480516,-0.154193718526981
404,404,-0.0292169886140768,-0.0504687053147449,0.898306893295542,0.0269028866958001,-0.0155957097788073,-0.0017555947792653,-0.183451680116112,0.582931204853542,-0.252270557602824
405,405,-0.0288294422975408,-0.0504985446746551,0.898197701765023,0.0305355219980591,-0.0150393272598908,-0.00475533426005426,-0.0648835468622886,0.573412518288407,-0.366460915413267
406,406,-0.0287234167226022,-0.0504026902586977,0.8980745267431,0.0283645378585415,-0.0109830938897421,-0.00816075481712522,0.0104537720232081,0.618301815617598,-0.457185549450376
407,407,-0.028803975941177,-0.0502061807745058,0.897937309139429,0.0214971689515588,-0.00343221509390389,-0.0116528036259537,0.0847276494031988,0.560768069348484,-0.49343358873623
408,408,-0.0289999339904342,-0.0499533712976505,0.897791465895296,0.0129454301620763,0.00552061591006762,-0.0145688062830056,0.00258325505182982,0.454321334719902,-0.38960057917439
409,409,-0.0292401534919382,-0.0496880336943741,0.897641071346789,0.0056742026106053,0.014098992008582,-0.0162971794528653,-0.164004980630669,0.457384638574951,-0.215349019846182
410,410,-0.029453535687068,-0.0494534467337282,0.897488548334117,0.00144291618742053,0.0214814226286583,-0.0170052271075022,-0.33893555629697,0.35875405151472,0.0788129784541063
411,411,-0.0296650691953739,-0.0492822403219977,0.897326540176014,-0.00150024806863477,0.0238585402890693,-0.0168684550721874,-0.356524120274686,0.450378890212389,0.242554615822585
412,412,-0.02992202603642,-0.0491439765344941,0.89715532322695,-0.00540961889211236,0.021689514324585,-0.0162369888458962,-0.307182516677952,0.472006625360647,0.300863636405341
413,413,-0.0301867462732629,-0.0489875060428861,0.896986463433451,-0.00953024217970962,0.0177764178645176,-0.0149094891643507,-0.280636991226011,0.525174382719447,0.253856810832819
414,414,-0.0304216650874703,-0.0487623495664264,0.896830014051798,-0.0119913563025357,0.0165502110350695,-0.0128765678953676,-0.264998000166648,0.469431510916349,0.119756251192021
415,415,-0.0305893615727208,-0.04841870891047,0.896694499324032,-0.0139150129853026,0.0170105003202806,-0.0107305160418254,-0.275842721479212,0.428281341198508,0.146774190879538
416,416,-0.030668442801324,-0.047962589075847,0.89657561200661,-0.0130718376468769,0.0201957158033682,-0.00905932696630208,-0.374250930004384,0.370893827228998,0.135425437723419
417,417,-0.0306839877522102,-0.0474267581223892,0.896466681561518,-0.0102076680893008,0.0263204454274112,-0.00778933408933209,-0.444669966514693,0.35283063848358,0.157440290271283
418,418,-0.0306682801949005,-0.0468028226707268,0.896370683252595,-0.0069892118939979,0.0371735448900828,-0.00629554319025058,-0.39234277445279,0.200330868153766,0.136942178146447
419,419,-0.0306533984095204,-0.04608338960407,0.896289380550452,-0.005330875028372,0.0477350534902696,-0.00477688788641734,-0.366143163200387,0.178780525963638,0.406437412803553
420,420,-0.0306712339150138,-0.0452618706722543,0.896223559277532,-0.00523658186194332,0.0570364285409668,-0.00247052408178673,-0.320137087941758,0.288159256960791,0.513787550525971
421,421,-0.0307324153259722,-0.0442693609399263,0.896166572390037,-0.003925289666417,0.0654088100499216,0.0014233096869994,-0.0137388112450609,0.0952496263301242,0.729545568445645
422,422,-0.0308154583956823,-0.0431116719322233,0.896114529014235,-0.00171688499773775,0.0712865637052888,0.0066023436148534,0.270999865029456,-0.32040707464053,0.731198333112108
423,423,-0.0309040479941655,-0.0418943237720278,0.896072875846514,0.000949624872625268,0.072872735721539,0.0113606519717254,0.634674451412008,-0.300055094230459,0.629066974856509
424,424,-0.0309820235074676,-0.0407227762787128,0.896047985138639,0.00454260904197735,0.0779819441888749,0.0145615746224244,0.317516321185151,-0.247208396545304,0.150081290114924
425,425,-0.0310333692955854,-0.0397026186914533,0.896047074697618,0.00702962173172175,0.0844227966270851,0.0153586062366452,0.0507095213625501,-0.0596131659040624,-0.152216668439606
426,426,-0.0310516344805583,-0.0388490938879982,0.896084916607396,0.00798584151484858,0.0894335761082436,0.0132902186545834,-0.00358123551436202,-0.082620570877808,-0.497995662709105
427,427,-0.0310479330537831,-0.0380923492826248,0.896157820342425,0.00794786291205383,0.0924839466774582,0.00890998593664397,0.00783068566865311,-0.137835952892055,-0.52890048553034
428,428,-0.0310322160114754,-0.0374100076838837,0.896246096072106,0.00920436689776407,0.0942343354301225,0.0033179732336154,0.020603529656961,-0.315322451143003,-0.326774331529142
429,429,-0.0310137523689975,-0.0367792333922243,0.896329918486182,0.0137484313675361,0.0931108335942589,-0.00262747951740768,0.00193927996929269,-0.349531199774272,-0.159198179836133
430,430,-0.0310013270702506,-0.0361768438654952,0.896389623714311,0.0199991456486818,0.0863322967091243,-0.00809659220140836,0.170337254402569,-0.216249600354469,0.0612999288735124
431,431,-0.0310000858107537,-0.0355942996760008,0.896422550044525,0.0238075034542,0.0728401960112281,-0.0142396541767098,0.305363181217183,0.0686193852198577,0.0305067207436043
432,432,-0.0310039703930423,-0.0350472062138936,0.89644640378488,0.0230860491372605,0.0549369108371329,-0.0216004843089729,0.479474779914305,0.314503132188685,-0.313934523637548
433,433,-0.0310050939378275,-0.0345480947500495,0.896471320383161,0.0183264879121443,0.0368070918659051,-0.0286742552299786,0.693156819066216,0.312616981235402,-0.562731817316291
434,434,-0.0309955013257701,-0.0341087527644321,0.896504989245234,0.0122344055363305,0.0202798362009273,-0.0337472165204274,0.715946672462186,0.281365263378708,-0.716832859606816
435,435,-0.0309668695333122,-0.0337402046533338,0.896552199596401,0.00653842834988427,0.00725791587335224,-0.0351852846910564,0.74834721943747,-0.000939828900909896,-0.636871881195759
436,436,-0.0309177689375545,-0.0334496651119055,0.896601610953653,0.00290570777515996,-0.00242947364728775,-0.0319139851026193,0.753036739369507,-0.24769951548829,-0.292322789354285
437,437,-0.0308542094939547,-0.0332292290190069,0.896651209462436,0.000399918642770988,-0.0101101933756084,-0.0249404314555704,0.682238017634494,-0.438796580305443,0.114539519171778
438,438,-0.030778377636401,-0.0330664309813047,0.896716386060932,-0.00178025061188987,-0.0156750908747572,-0.0161529638043395,0.502397645944678,-0.800332844113506,0.611211481278054
439,439,-0.0306920618381055,-0.0329482159339119,0.896810762969828,-0.00345143079992483,-0.0203131763990294,-0.0069682810002885,0.454962998576582,-0.968687731760121,0.932158150819767
440,440,-0.0305967504008476,-0.0328610061722674,0.896946257721522,-0.00439688933999653,-0.0245618114190045,0.00136655991692121,0.240340870685367,-1.01479685947083,1.03231594862489
441,441,-0.0304892635228351,-0.0328295986936824,0.897136957441596,-0.0044513767735294,-0.0281033504604635,0.00936587875831478,0.0382967293050621,-0.942060450310078,0.854289128368984
442,442,-0.0303684221381215,-0.0328615570285046,0.897373012193203,-0.00470121389592925,-0.0306639522407595,0.0178871197503466,0.0277606179095028,-0.884333955030322,0.577574402289536
443,443,-0.0302386019661495,-0.0329180046585526,0.897628014735106,-0.00480907347454738,-0.0319203924536499,0.0256640946928641,0.0459377757279447,-0.90533788092631,0.263459161835695
444,444,-0.0301040656014305,-0.032961026055646,0.897874051005826,-0.00413711510517019,-0.0309286206699087,0.0317679185466523,0.0850001214508167,-1.0852919535189,0.0822990944770522
445,445,-0.0299689060493095,-0.0329534241829741,0.898082168292499,-0.00177130363719741,-0.0305502703433333,0.0351655603420334,0.0219389595702315,-1.17193119777869,-0.129525731214573
446,446,-0.0298247953072751,-0.0328604252689483,0.898250804469824,0.00241345822832856,-0.0312934699312895,0.0350211763440158,0.123086845938945,-1.18529316777286,-0.258332486826626
447,447,-0.0296689071706389,-0.0327079004198424,0.898395958539298,0.00736127349733986,-0.0297906881032437,0.0321762520025892,0.241044340174594,-1.16420304005439,-0.31138795380948
448,448,-0.0295134689879015,-0.0325499257823449,0.8985147185694,0.0138873741340642,-0.0258515696470228,0.0273852494719851,0.166493529762031,-1.21333242999559,-0.432896113852795
449,449,-0.029370752703582,-0.0324405723126302,0.898604602137173,0.0204673495676188,-0.0222625222118877,0.0218410226891106,0.0589238676734091,-1.13252394517039,-0.48006791662891
450,450,-0.0292530661439186,-0.0324339285313386,0.898664045381353,0.0251493306293686,-0.02096681865446,0.017068046757455,-0.0510140185111662,-1.03620021897316,-0.438677749258451
451,451,-0.0291657768700848,-0.0325120487371941,0.898700718867297,0.0274546135074299,-0.0222933640861933,0.0137749381084602,0.0340854665920517,-0.957577426447655,-0.411263663619209
452,452,-0.0291008585465531,-0.032639695826238,0.898719642578071,0.0288796303375972,-0.0256626461327871,0.0112158193829626,0.228451724943958,-0.865300669805029,-0.379579559187803
453,453,-0.0290504946153995,-0.0328447823279142,0.898715769706971,0.0286814301507057,-0.0317326156992674,0.00903702932556216,0.437835654799375,-0.703980687647646,-0.244280490623603
454,454,-0.0290068078566977,-0.0331547872781896,0.898682075024367,0.0275730027788722,-0.0391302982932482,0.00660461787844145,0.407212499748028,-0.564859581763604,-0.276882508786887
455,455,-0.0289618305519562,-0.0335967824449896,0.898608551550335,0.0247631751764002,-0.0480820573378174,0.00336503999914649,0.378865617568414,-0.511597522899391,-0.31246806076337
456,456,-0.0289495122995098,-0.034151892330895,0.898495285986846,0.0201460935462681,-0.0592578765511486,-0.00104364717422542,0.241257343012288,-0.49761767513366,-0.465000945008897
457,457,-0.0289753767944901,-0.0348012558411439,0.898352827667058,0.0133095031233304,-0.0714986276663668,-0.00637927387662854,0.245343766105913,-0.495761548495439,-0.523548130246099
458,458,-0.0289886168540094,-0.0355723781709613,0.898182280724749,0.00595489452473445,-0.0831910342973991,-0.0123075623473894,0.0706146446340801,-0.623780760878277,-0.574389060206014
459,459,-0.0289381758294948,-0.0364937540887522,0.89798167529744,0.00183972305003056,-0.0948187108665736,-0.0185505634308982,-0.063906355623207,-0.738126955262918,-0.675981732247394
460,460,-0.0287726451446009,-0.0375947630557308,0.897746067799913,0.0030473561191019,-0.105591277075784,-0.0249941039508205,-0.170236540501635,-0.714508949873696,-0.730187389959384
461,461,-0.0284889760606319,-0.0389902260980753,0.897441162838398,0.011379369697355,-0.11731411358226,-0.0339360672356565,-0.223597662956065,-0.208123343050766,-0.748527921873746
462,462,-0.028120721640772,-0.0406626697242521,0.897067055993835,0.0226658487665485,-0.132335992583104,-0.0451196541214836,-0.227598596256143,-0.154312559404384,-0.787686536002596
463,463,-0.0276712197482782,-0.0424416697795694,0.896668978933514,0.0340188717162763,-0.14448822005611,-0.0544080272443997,-0.484010348833816,-0.215827377458778,-0.7640940954792
464,464,-0.0271440748493649,-0.0441546618626198,0.896292858346214,0.0447235292946705,-0.152009213670179,-0.0597256464440262,-0.220875985133398,0.248569922247849,-0.365151997925994
465,465,-0.0265432921562917,-0.0456272222071459,0.895985804196345,0.0552024019624574,-0.149820291744484,-0.0595298736238137,0.0544234416451125,0.194029594180557,-0.0171477980991389
466,466,-0.0258030954711521,-0.046881190782729,0.895731997136403,0.0606225854527229,-0.13654530712397,-0.0505937498080834,-0.143544297424418,0.0260258439655777,0.689624874104338
467,467,-0.0249212407281552,-0.0480283932932785,0.895502986380203,0.0649587803469014,-0.117146232217207,-0.033492031293429,-0.205654908907453,0.277166647235135,1.70145407431386
468,468,-0.0239973100548811,-0.049030093502098,0.895327440765736,0.0716226695104411,-0.0935014709104411,-0.0133399152830536,0.0291328208011262,0.933925479282343,2.5126042878689
469,469,-0.0231305392362093,-0.0498501235201577,0.895232235461277,0.0795025519537489,-0.070368769559656,0.00433495971971808,0.518855109767478,1.44863855598482,1.82600199075893
470,470,-0.0224198224628235,-0.0504545023970374,0.89524204022683,0.0875765612722519,-0.0489955631328146,0.014440277514105,0.710071267563929,0.945532552671438,0.69167209978404
471,471,-0.0219198854684448,-0.0507001828993103,0.89538475414527,0.0895930450236958,-0.0310654889161239,0.0136637072488184,0.47792885326152,0.323788622665653,-0.150167972296579
472,472,-0.0215652725402206,-0.050611177322826,0.895646690508715,0.0835703120400203,-0.0144150572204681,0.00529390775446391,0.433376444403761,0.00864376161152765,-0.721054786429231
473,473,-0.0212742569246206,-0.0504052212625041,0.895986713638446,0.0735187471434259,0.00437652197075732,-0.00590928680611085,0.265952374870243,-0.502194358072091,-1.1115131633199
474,474,-0.0209647494724706,-0.0503003054027095,0.896361008100859,0.0611074846832763,0.0188017466748481,-0.0155068696433325,0.336782935993618,-0.5485437690161,-0.910238489634823
475,475,-0.0205542040386112,-0.050514895343408,0.89672300662051,0.0501975569095887,0.0262008229584912,-0.0191263625670791,0.453137887656195,-0.237048213337429,-0.131710151749981
476,476,-0.0199930596087492,-0.0511684377879799,0.897075439626871,0.0474586442349097,0.0259139549825991,-0.0133850341039546,0.140317600207612,0.0590542850721494,0.420474092988546
477,477,-0.0193361718118053,-0.0521158788490613,0.897447453989473,0.0514839180585633,0.0158164043092122,-0.00119043178516001,-0.16434193086915,0.360132059372147,0.836896365422914
478,478,-0.0186571326256856,-0.0531797454425927,0.897829746382977,0.0567491375143795,-0.00424433479020685,0.0132476516859326,-0.14895935540939,0.709014241405421,1.1259908119321
479,479,-0.0180292150079659,-0.0541831574190041,0.898211982628333,0.0583025759739595,-0.0288930574765889,0.026716668106189,-0.0764948529915684,0.921945301782464,1.08861041666563
480,480,-0.0175254951068521,-0.0549496901979453,0.898582809724279,0.0550812532299012,-0.0490562427393042,0.0358006746470719,-0.13287286027182,1.00439852688154,0.701605651080246
481,481,-0.0171987143272153,-0.0554252472700487,0.898957022936124,0.0452333647705381,-0.0562442545056177,0.0402423777127938,-0.183972678937704,0.849741915732938,0.163019190958085
482,482,-0.0170001790949205,-0.0557296740769457,0.899339860435803,0.0307746213015466,-0.0496748869417832,0.0425081745853352,-0.162319336338041,0.669142023421459,-0.249736981336219
483,483,-0.0168507568164936,-0.0559459666296921,0.899704274124744,0.017171216325675,-0.0349850260389724,0.0432483845508476,-0.140423396050118,0.535090487351061,-0.382547097465698
484,484,-0.0166708035018645,-0.0561550565099391,0.900022234192567,0.00800901588220715,-0.0202804459305295,0.0425077401044092,-0.221215101836203,0.654594594959351,-0.233527032298354
485,485,-0.0163801133918209,-0.0564364161082158,0.90026515897225,0.003753969284238,-0.00956242583588477,0.0405085241264613,-0.263885638267855,0.757057322477237,-0.0770426737486465
486,486,-0.0159472215345148,-0.0568154339720526,0.900424697798201,0.00540820923133091,-0.00598504794094081,0.0370891720731906,-0.382285178565474,0.901396684803181,-0.122285494482077
487,487,-0.0154252434490983,-0.057237124491314,0.90051787332344,0.0114805855194588,-0.00824456088261813,0.0321508413870235,-0.352086127407676,1.07358236499164,-0.188337948983348
488,488,-0.0148607179267224,-0.0576603847851978,0.900554524892016,0.0209431807811484,-0.0140383982502354,0.026707301052272,-0.561018821133835,1.10862636235064,-0.365799434086314
489,489,-0.0143003535625617,-0.0580445701227665,0.900544919645343,0.0298918881254376,-0.0206636929186011,0.0208391072207649,-0.517526095974092,1.07032866865443,-0.41459335463657
490,490,-0.0137909665542215,-0.0583492202853497,0.900499715829003,0.0350769000450584,-0.0243346150266034,0.0151554085784462,-0.606904958420539,0.917974240175867,-0.51342212448338
491,491,-0.0132845502536216,-0.0585840802524175,0.900414609361796,0.0358648971924597,-0.0243825169263177,0.00892344916189498,-0.483989142837541,0.704786083362354,-0.620619615720518
492,492,-0.012750328474365,-0.0587773175292867,0.900285808262189,0.0342554387530808,-0.0219584584781278,0.0018895983516006,-0.286939500510193,0.455380260716736,-0.646672522952456
493,493,-0.0122608332637323,-0.0589156047588847,0.900124533737421,0.0308378443257169,-0.017313920899658,-0.00494353704592396,-0.0841949725005028,0.27809415966317,-0.657626790767225
494,494,-0.0118883698241464,-0.0589846110497963,0.899940701734152,0.0259913819595399,-0.0115906851015774,-0.0108097589061106,0.0575074786540531,0.143147284389719,-0.631717522889898
495,495,-0.0117050212855334,-0.0589687805379225,0.899742413107677,0.0212164395558698,-0.00580828268917227,-0.0148132750608601,0.00312341141509037,0.207450629873905,-0.502647232485414
496,496,-0.0117749376069189,-0.0588640387301962,0.899515104373439,0.0158429509155007,0.000867719647065893,-0.016691935646962,-0.191765600747302,0.285800532697472,-0.303066848792108
497,497,-0.0120498503823786,-0.0586789648461305,0.899256330135144,0.00965775030878617,0.00730566043963733,-0.0171409432269605,-0.301146958403111,0.437876591872445,-0.165981599954477
498,498,-0.0124331268680507,-0.05841676239229,0.898989296570688,0.00209510192690201,0.0148235086474866,-0.0165977874309249,-0.370619093584128,0.555705455528334,0.0768072820550196
499,499,-0.0128282813867889,-0.0580817866042394,0.898734881794947,-0.00523702283614543,0.0219843486622226,-0.0152967017788088,-0.412412928030879,0.563216522591608,0.263118823781855
500,500,-0.0131389825723479,-0.0576796035517261,0.898511643729978,-0.0114026509067195,0.0266462124214124,-0.0136000062068546,-0.404646976744229,0.749361220848638,0.27397305419847
501,501,-0.0133504557773881,-0.057210863404414,0.89832054230311,-0.0147403095854667,0.0321488471889489,-0.0116425413176981,-0.36429391200004,0.521360849798742,0.360867652843907
502,502,-0.0135270996746583,-0.0566723654167681,0.898147131251965,-0.0167985502974204,0.0371715221490661,-0.00941338184078404,-0.3203186815592,0.461589089755095,0.34689307604737
503,503,-0.0136912808299785,-0.0560647164559679,0.897984947134201,-0.0177448616138963,0.0435519095022287,-0.00679349855327815,-0.181724499689299,0.402417752055151,0.350118094320204
504,504,-0.0138651519558912,-0.0553886079625378,0.897827096799006,-0.0181434851041492,0.049897677241626,-0.00434223981982711,-0.301891968033427,0.371468776967244,0.270301793573911
505,505,-0.0140706774238048,-0.0546448400490552,0.897666394812764,-0.0186697351325256,0.0571217457909882,-0.00170526001738105,-0.0913198587636784,0.31079935159237,0.272293039445854
506,506,-0.0143403702900707,-0.053771479250232,0.897495887494361,-0.0170942395252627,0.066747505676375,0.00214611254724528,0.0413967237982659,0.232104314852373,0.366684622358251
507,507,-0.0146593491760193,-0.0527683423997129,0.897317813680555,-0.0120864166353893,0.0761205966306218,0.00658641063633317,0.207269229004506,0.0246653943441268,0.403044813999396
508,508,-0.0149784150049307,-0.0517291324306358,0.897139672444557,-0.00939674573534257,0.081135693718808,0.0101216412002842,0.205128201528919,0.0197410048095202,0.402902146781372
509,509,-0.015248373185918,-0.0507479175347019,0.896970079683351,-0.00869991914734536,0.0813269358666192,0.0119669950896925,0.121349446213925,0.293146590104338,0.256657019848404
510,510,-0.0154200299493637,-0.0499191641306512,0.896819019317114,-0.00940135203296109,0.0813999460265447,0.0118345178604672,-0.10476184640291,0.178338318753705,0.0935146319684881
511,511,-0.0154547618379258,-0.0492412619644067,0.896696652763529,-0.0100512357206208,0.0801356755508206,0.00878673227067048,-0.130537249423791,-0.0672085758123922,-0.105303773905698
512,512,-0.0153854660968068,-0.0486531817159881,0.896600045819933,-0.00952491474057451,0.0789279850999587,0.00353470710216062,-0.0244851817243637,-0.230077898502339,-0.234517112922917
513,513,-0.0152701417098357,-0.0481595230201272,0.896520560267643,-0.00753276130702661,0.0768998690678245,-0.00273882978040347,0.121986785661673,-0.131495589473594,-0.228838060046425
514,514,-0.0151665850110575,-0.0477632089315815,0.896448581337511,-0.00364075396569189,0.0720050794754386,-0.00869508285413403,-0.0376818585568046,-0.0483276489835713,-0.373749149007472
515,515,-0.0151325142673032,-0.0474653439593913,0.896373209894337,0.00149057086992275,0.0629622527743632,-0.0135087055219258,0.00161041064806001,0.0237264329261496,-0.651579745742286
516,516,-0.015201484854052,-0.0473245402507253,0.896272262942596,0.00382781272755151,0.0473912720364324,-0.0191922289014716,0.205639170083479,0.1637747998403,-0.710437652664809
517,517,-0.0153360219125684,-0.047336488146458,0.896158273724444,0.0033421198406274,0.0274246312770127,-0.0264928342097054,0.187720904535032,0.166648591818042,-0.701134481020428
518,518,-0.0154870431115657,-0.047408040381495,0.896068733776589,0.000254380557988787,0.00606047833296596,-0.0332252881789506,0.34295661129569,0.184775851562892,-0.491530741850152
519,519,-0.0156044879452521,-0.0474483760712934,0.896037125840682,-0.00419921381212916,-0.0132382057374442,-0.0369948524579405,0.480388326745658,-0.00745261591224501,0.0489962633976146
520,520,-0.0156370192015013,-0.0473690030479045,0.896092970005718,-0.00818525239415509,-0.0269510229972423,-0.0356219464159446,0.576564304489557,-0.245731633954166,0.633411775996289
521,521,-0.0155320637577096,-0.0471422455197002,0.89625095142469,-0.00981395004946447,-0.0341887454047726,-0.026465018818062,0.578401820984792,-0.45834027896721,1.12827972642116
522,522,-0.0153232654063481,-0.0468291791502808,0.896488220446495,-0.00760954436562831,-0.0362876753693722,-0.0105208212937763,0.642793173451434,-0.799039308054174,1.37438697007259
523,523,-0.0150878389426362,-0.0464747387025198,0.896775449536894,-0.00189801375607748,-0.0330674387939959,0.00834095818645092,0.491189539890395,-1.14226168672146,1.37735594008365
524,524,-0.0149029366643852,-0.046122529129117,0.897083064918449,0.00482247471177654,-0.0273670745558574,0.0262696944400092,0.1929672475898,-1.2231501030292,1.10171395445049
525,525,-0.0148456624626369,-0.0458150392235172,0.89738115820636,0.00945297355414486,-0.0197487627521399,0.0389177819809849,-0.0540455046160282,-1.21581967529161,0.8551790957593
526,526,-0.0149902952894387,-0.0455440984761472,0.897684023465757,0.00898299147248455,-0.0119981651287994,0.0456507674371752,-0.343643355164814,-1.17467532139129,0.478084795059274
527,527,-0.0152856485586381,-0.0452797261115031,0.898009666779766,0.00364758909065249,-0.00642280795942432,0.0485624396706019,-0.34327932001116,-0.99322716794263,0.143576532334456
528,528,-0.015620445556598,-0.0450318110608992,0.898332649510904,-0.00446432815712402,-0.00445217054976966,0.0480068947672038,-0.192527221990021,-0.926405899533475,-0.161972747888952
529,529,-0.0158828192011851,-0.044811313971126,0.898626520033021,-0.0132055567675368,-0.00376920643557438,0.0450796094105848,0.0352974277672346,-0.866880248892084,-0.323123627430511
530,530,-0.0159603292728463,-0.0446300830212982,0.898864278833247,-0.0182610544200284,-0.00320216107431464,0.0408260353066245,0.00337234036143199,-0.877004887462106,-0.473856285703631
531,531,-0.015782293581841,-0.0444697402512801,0.899046241012625,-0.0169731384417678,-0.00344839227714738,0.0347751739210171,-0.0894152435571952,-0.828787097489166,-0.597915349893781
532,532,-0.0154232041631109,-0.0443238299594637,0.899188313614693,-0.0118365352442806,-0.0028033198769123,0.0264127598387065,-0.151467881855406,-0.78008299926252,-0.729384362783776
533,533,-0.0149882738177563,-0.0442221786345107,0.899287210452695,-0.00443771548670402,-0.00297606781531979,0.0170899184029591,-0.190705933626872,-0.749537274948696,-0.800737045366252
534,534,-0.0145828166708264,-0.0441941478333139,0.899339988016524,0.00350946579449993,-0.00487241511946842,0.00808832280522151,-0.10094983303772,-0.734004284227367,-0.760850021338866
535,535,-0.0143121328140258,-0.0442688016419748,0.899343972319941,0.00971683167013692,-0.0083228905194528,0.000615789596369963,0.0253117633652902,-0.785514745906549,-0.75423098361071
536,536,-0.0141840700748332,-0.0444488416335022,0.899293429208399,0.0130888571989136,-0.0132539547781885,-0.00522824196644102,0.112512596815853,-0.770081881178007,-0.66156575039251
537,537,-0.0141286794649387,-0.0447158940892459,0.899192540175778,0.0151246278129653,-0.0202615957209296,-0.0103618305147237,0.130577658353196,-0.621783264798056,-0.644491734589263
538,538,-0.014134427411157,-0.0450669948595165,0.899053618362769,0.0150362981122983,-0.0282748428671249,-0.0147612903445415,0.15624840906643,-0.514712979940328,-0.537092988671671
539,539,-0.0141896857171993,-0.0454984309899485,0.898888488085143,0.0129589824896148,-0.0378286253400222,-0.0184594715330139,0.1965252463354,-0.427563135832458,-0.409188864513066
540,540,-0.0142827674991246,-0.0460055209566316,0.898708119521226,0.0109424442550807,-0.0477197927036588,-0.0215878634930752,0.226683275299885,-0.35930423552398,-0.37061529333159
541,541,-0.0144554572550316,-0.0465886398133228,0.898510536361997,0.00803363522753982,-0.0570652202440477,-0.0235194811834802,0.303978378064618,-0.375425286037414,-0.281626855815239
542,542,-0.0147156948363866,-0.0472499486116314,0.898292620938325,0.00380104942431589,-0.0662033794761236,-0.0240769743495276,0.232006176456865,-0.439299371633714,-0.298492673819433
543,543,-0.015000954626771,-0.0479868884063098,0.898061201502016,-0.00150782267023662,-0.0729905474136239,-0.0241745694656773,0.255989647613009,-0.531089449077596,-0.192107378558174
544,544,-0.0152486019363068,-0.048797395061549,0.897820588540195,-0.00730236086805373,-0.0778785414395938,-0.0245946820687439,0.30329640349608,-0.490488134932573,-0.045588371258996
545,545,-0.0153958433808232,-0.0496799793203673,0.89757248961605,-0.0100639703647594,-0.0821289956558726,-0.0255361589735906,0.0994014841441175,-0.411552618900328,-0.086740671254442
546,546,-0.0154769839607948,-0.0506425123364001,0.897303607624049,-0.00823022647368961,-0.0881146827419286,-0.0282949523208602,-0.086285999490017,-0.236261755897989,-0.30223837456203
547,547,-0.0155337820770338,-0.0516862945112096,0.897011553904224,-0.00492929325643513,-0.0936821407656739,-0.0329176803858725,-0.106662744982058,-0.22891367929323,-0.299190923136046
548,548,-0.0155144579461873,-0.0527998279034422,0.896712329370802,-0.000859671610088768,-0.0979291009900941,-0.0372159929011112,-0.0528212660959499,-0.360632924246139,-0.4816106564633
549,549,-0.015367215980946,-0.0539708715843938,0.896421615590552,0.00190794507759787,-0.101670660285505,-0.0389007271423954,0.174322481345139,0.0251046095619727,-0.362318769742071
550,550,-0.0150402636585222,-0.0551864800149787,0.896154978760598,0.00953579112843713,-0.102730036986106,-0.0362346193194639,0.357757728973132,0.189544208995023,0.0449615449701435
551,551,-0.0144520669505508,-0.056551150495427,0.89591019124867,0.0269007320748297,-0.100229601548051,-0.0267155628074642,0.102535218488135,-0.146137108980263,0.537663775060009
552,552,-0.0136369199154712,-0.0580716685864417,0.895676062398835,0.0485338923826856,-0.0966818439104259,-0.0108682877186667,-0.00785331411112507,-0.277285931086407,1.19296038468421
553,553,-0.0127168520104715,-0.0595887192611963,0.895455000266764,0.071170645923433,-0.0942277577585859,0.00723015318828743,0.133538053391915,0.194110180318264,1.65393409555968
554,554,-0.0118140896539049,-0.0609437712317888,0.895249807891604,0.0908077535448252,-0.0905716119560623,0.022660246782887,0.261282394064391,0.683290009122043,1.81127124716068
555,555,-0.0110510953013534,-0.0619789666628638,0.895063983518676,0.103977318718848,-0.084794112291835,0.0303350510107429,0.431514420905079,0.750468528116212,1.55002982303269
556,556,-0.0104464496228183,-0.0625870267386903,0.894899308816307,0.106776206487621,-0.0791457938455643,0.0284222230291062,0.348623700142251,0.649385083805686,0.831026754228433
557,557,-0.00991901037170114,-0.0628726221344822,0.894757810345796,0.101086636255177,-0.0715136270988632,0.0198768057411266,0.223419453320902,0.341588864478045,-0.177332430274074
558,558,-0.00944168170538852,-0.0629972002181047,0.89464274534626,0.087238711242666,-0.0608683167597846,0.00813461498187539,0.209810878660386,-0.092805495213187,-0.838244127672421
559,559,-0.00898711698770535,-0.0631236292876349,0.894554615400372,0.0705327158063223,-0.0477153486399258,-0.00287954555983596,0.0145632029845273,-0.510763864075861,-1.27463232709004
560,560,-0.00852758196803286,-0.0634162666493542,0.89449070939403,0.0577578206310428,-0.0355072211914698,-0.00972302329748463,-0.159616747624554,-0.608109636184533,-1.40724598115001
561,561,-0.00805526111787756,-0.0639000064912834,0.89443474628343,0.0526706390031905,-0.0284753822847512,-0.012774310640579,-0.149718465475016,-0.647720568592997,-1.09522466117087
562,562,-0.00758866641388621,-0.0644689581267009,0.894389293906557,0.0540107664241562,-0.0264897176775093,-0.0146944443434569,-0.116551945099772,-0.501741599985609,-0.504159179841051
563,563,-0.0071391566355213,-0.0650909515661952,0.89437636474263,0.0569678754846093,-0.0272914553985436,-0.0150890459594116,0.0760564438041403,-0.257858379061406,0.286008262301656
564,564,-0.00671801659013177,-0.0657318348907839,0.894416014794223,0.0604936260357541,-0.0298079943878229,-0.0134387401314574,-0.0156339357685411,0.0382312001211966,0.788634514722921
565,565,-0.00633638632760212,-0.0663555443823827,0.894526401747629,0.0601816130333063,-0.0313311487301002,-0.00959856460049749,-0.0912644786624474,0.449983656047381,1.13128115984168
566,566,-0.00599696517376684,-0.0669882410343269,0.894731096107261,0.0518295546778338,-0.0291013507083964,-0.0016626320377102,0.0870921224008332,0.894237870799608,1.36238839089837
567,567,-0.00569186236758841,-0.0676529717383493,0.895015082725315,0.0366868292247451,-0.0247131419832946,0.0104882289626395,0.263106015156661,1.14150595170196,1.22881664492982
568,568,-0.00541624368220174,-0.0683077023853505,0.895337176497232,0.0208453740201087,-0.0170137405172294,0.0243968316085372,0.19713204641009,1.04076893160335,0.699713789515431
569,569,-0.00516543118339739,-0.0689102842804467,0.895655855018101,0.00660263591895301,-0.00756323521716458,0.0369266842745143,-0.0445899129583406,0.926611520038911,0.17956653875678
570,570,-0.00493493312391058,-0.0694184466782834,0.895929314964182,-0.00273654731383099,0.000277041807170756,0.0453803622270179,-0.124613664484813,0.963540924609295,0.0416936114622651
571,571,-0.00475784037717582,-0.0697922240346441,0.896151165041033,-0.00607373672045729,0.00509814180438256,0.0492196730287405,-0.289584386173375,1.11877333543801,0.0851370103363807
572,572,-0.00463701588256116,-0.0700589514743572,0.896347081344071,-0.00750905421898832,0.00891177257489401,0.0500152103420151,-0.336732772694578,1.16232657819277,0.115149348078449
573,573,-0.00452274133033527,-0.0702774385759855,0.896522634597319,-0.00832651788182526,0.0113685886037159,0.0480237978290327,-0.394421777986292,1.20618962319496,-0.0310030449136524
574,574,-0.00436531437018789,-0.0705067380387728,0.896682841517821,-0.0082603875801663,0.0134953657450701,0.0439611300902733,-0.47275249065174,1.11728346923311,-0.283932219913619
575,575,-0.00411508824534267,-0.0708060764164214,0.896832542593498,-0.00825405369094176,0.013333018814321,0.0386838904810426,-0.549620043199288,1.07155067065274,-0.448581461305992
576,576,-0.00370393415855024,-0.0712326866974959,0.896995836992936,-0.00617688176978628,0.00809046676768136,0.0317329741168132,-0.532949874966671,1.00629721868817,-0.623477768196459
577,577,-0.00316502542738952,-0.0717470063920998,0.897168402976059,-0.000676006326239833,-0.000902127872798084,0.0228737904555747,-0.422576991745704,0.925343483312206,-0.601285449580205
578,578,-0.00260079132049941,-0.0722631770752453,0.897313054518694,0.00736649537970734,-0.010087563441892,0.0133632141367569,-0.426844418187193,0.666407927971711,-0.694981931007716
579,579,-0.00211370923147563,-0.0726953091014639,0.897393042790294,0.0145390158519108,-0.0177596763232232,0.00432937518294907,-0.340599215899598,0.54191730243352,-0.780774166721122
580,580,-0.0018062822975384,-0.0729573682954216,0.89737188474699,0.0177903432352176,-0.021355642003741,-0.00353265297773372,-0.223796417469783,0.489559649694687,-0.784388044914084
581,581,-0.00170901211493115,-0.0730315458540532,0.897226662236022,0.0168268087363503,-0.0182798168289098,-0.0109264079569849,0.0212657834351245,0.409320244384075,-0.848176671840231
582,582,-0.00175398758764346,-0.0729744964765603,0.896985148786264,0.0116757803907168,-0.0104536584029101,-0.0180301130595034,0.236298464911603,0.395393544219837,-0.852934562124957
583,583,-0.00189602781242965,-0.0728118501111218,0.896686532954636,0.00474027575421495,8.48633252233534e-05,-0.0241031160212157,0.321302520453753,0.49861628997482,-0.722923657679323
584,584,-0.00208982614034672,-0.0725695339137475,0.896368991796623,-0.00127168584528801,0.011352161121952,-0.0289312975146177,0.24350827130079,0.572234145413013,-0.577798365198191
585,585,-0.00228994073757743,-0.0722738555704956,0.8960693417644,-0.00508463729157899,0.0207360750118026,-0.0317569416024812,0.0583586812833279,0.694752458031508,-0.352496768102743
586,586,-0.00250059151014193,-0.0719298900867854,0.895770472276231,-0.00607894663350032,0.0280601334675375,-0.0321948646139923,-0.267390058258139,0.750449413583061,-0.182544118557727
587,587,-0.0027523049009729,-0.0715192291609082,0.895451387904862,-0.00595666666964968,0.0356224900341924,-0.0304933938813895,-0.411411381682908,0.640970039667999,0.0353274234627685
588,588,-0.00303879698569777,-0.0710339318760527,0.895140005165785,-0.00639334704569384,0.042117706972282,-0.0273229081808452,-0.42955806410506,0.583831854198447,0.259801280404226
589,589,-0.00335350386268188,-0.0704670418691106,0.894861415164419,-0.00918418924035548,0.0450214031255079,-0.0237480032580105,-0.326144025578816,0.486715497108646,0.513773036897982
590,590,-0.00368962459319292,-0.0698125499994831,0.89463794613781,-0.0132429996510025,0.0461554374457557,-0.0203990399208661,-0.298789763961978,0.466799804924517,0.597786930446654
591,591,-0.00408482441478328,-0.0690402257042198,0.894441447124177,-0.0185310400049782,0.0487661891920805,-0.0173347319792227,-0.344866716769331,0.278229211762971,0.440990909322772
592,592,-0.00454334499887809,-0.0681551182067124,0.89425428279417,-0.0249014389901573,0.0519713996462073,-0.0144786759052524,-0.280656250597753,0.108203939348749,0.284033241957866
593,593,-0.0050080691256862,-0.0672049888584614,0.894112748279269,-0.0321161027824075,0.0562192717182587,-0.0114798779565423,-0.49469027792367,0.123287396882833,0.135074654149052
594,594,-0.0054217908714033,-0.0662378867822742,0.894053135424248,-0.0387432512856286,0.0619444434872768,-0.00724489634632931,-0.320757604109412,0.153756156507364,0.277514456553308
595,595,-0.00572719977883436,-0.0653020700712566,0.894111759794428,-0.0407500567283352,0.0707879103696517,-0.00126711966012629,-0.0488338644116149,-0.281834123665789,0.731093654074438
596,596,-0.00591823324092346,-0.0643815498561784,0.89433585976345,-0.035811399910278,0.073613754238769,0.0065138669020758,0.48795615832651,-0.39584470927255,1.30411334726006
597,597,-0.00603238660856701,-0.0634452320900788,0.894699082211512,-0.0289598493079097,0.0680303266834621,0.0165197542846018,0.461314069109615,-0.012705902147069,1.55493347175947
598,598,-0.00607795999696099,-0.0625185421516063,0.895128209159664,-0.0179445570732123,0.0661926273079044,0.0271384686633286,0.0276297991736528,0.0559119674727814,1.02434670978921
599,599,-0.00606385681085554,-0.0616268785360777,0.895550914065181,-0.00794945285183048,0.0683152944113828,0.0355172182705877,0.0200337540182327,-0.0521626253854334,0.415450322764292
600,600,-0.00599955516198305,-0.0607956668192144,0.895895797028019,-0.000943781076380323,0.0714038971609427,0.0392259251061131,-0.154434550943393,0.0403741087979984,-0.161436178292684
601,601,-0.00583617009996713,-0.0600304972309197,0.89616840892382,0.00519783031864427,0.0762932214521824,0.0358191471168162,-0.397005793242803,-0.176995449360716,-0.540952209511412
602,602,-0.00556807394939534,-0.0593145628861824,0.89641812643541,0.0122664962322122,0.0829698442788615,0.0278300569193518,-0.430210194489298,-0.0878861213922407,-0.684674994307484
603,603,-0.00526962939178047,-0.058638957492715,0.89664006700185,0.0211321615342932,0.0891613442077847,0.0174344060145676,-0.198284678829311,-0.115062711154248,-0.61929976687443
604,604,-0.0050148113093103,-0.0579941439720953,0.896829115080191,0.030288011121124,0.0911019367837355,0.00733234539065659,-0.0364345308555795,-0.290029462204815,-0.470635832798091
605,605,-0.00487736469866208,-0.0573701522936799,0.896979862625554,0.0355011025398857,0.0869617773652664,9.92445014581856e-05,-0.0201439514600863,-0.23481335372858,-0.402556813086195
606,606,-0.00489065723328064,-0.0567627457050873,0.897072262871687,0.0353053060517262,0.0757558686476157,-0.00499852697632463,-0.00961204981898834,0.00745166339437806,-0.347435340062523
607,607,-0.00500588694214544,-0.0561767220080545,0.897113227457061,0.0288328186169431,0.0606335486303231,-0.00952193947829015,0.092422314265539,0.237389481378665,-0.278482364129774
608,608,-0.00517345730106539,-0.0556160149527006,0.897136382830093,0.0186939824688788,0.0463898572287882,-0.0128450085034895,0.251642291090778,0.365889342118952,-0.218893120667887
609,609,-0.00534348151716044,-0.0550851937258665,0.89717346127422,0.00919720990797419,0.0347092936694664,-0.0145360184078781,0.402781364016759,0.257003363049774,-0.0438735516580041
610,610,-0.00546561876587021,-0.0545894704127328,0.897254201365349,0.00181565634109234,0.0252129989845904,-0.0138992628776132,0.425874655212784,0.0472542438423548,0.113318700795922
611,611,-0.0055434714218671,-0.054123594662985,0.897379833419712,-0.00229662866114246,0.0176027870713505,-0.0100322381123154,0.380030867457088,-0.219764757849418,0.259142428715467
612,612,-0.00561086363840454,-0.0536847922498498,0.897530383420517,-0.00579217650655269,0.0102583293054282,-0.0031797487818265,0.432908955231763,-0.37713775677774,0.452992100277159
613,613,-0.00566213687618646,-0.0532822131891191,0.897701536890487,-0.00870178497885122,0.00327403065612831,0.00476149665386273,0.32266826393173,-0.423173703169001,0.622177593306895
614,614,-0.00569121629628358,-0.0529244363920909,0.897887802130011,-0.0104866056520686,-0.000426732708491927,0.0124629010692722,0.250756785685309,-0.65723216543467,0.658556516379042
615,615,-0.00569171226662383,-0.0526194644645303,0.898082587252696,-0.0122291518212346,0.000692751239779251,0.0185954553851014,0.0642938170570116,-0.853730197432328,0.719875264682665
616,616,-0.00566108657523827,-0.0523914712577855,0.898298503559691,-0.0134520512902693,0.00774178368092599,0.0231898013010614,-0.212682354046466,-1.06899716333816,0.567588979413297
617,617,-0.00560337317628095,-0.0522347926134852,0.898538315130971,-0.0138960722181536,0.0161147029844249,0.0273956782826169,-0.41661355650353,-1.0265085800294,0.313511273774123
618,618,-0.00552181006997331,-0.0521126841438717,0.898778603733887,-0.0135788786556999,0.020585459956168,0.0302946513338574,-0.284727232959439,-0.749546339414555,-0.00510902611170504
619,619,-0.00541935172446535,-0.051988817218151,0.898994402624024,-0.0140920468553745,0.0225525393087897,0.0310947868788579,0.0428006294555422,-0.578003154012158,-0.198969897347319
620,620,-0.00529866103996011,-0.0518271426606584,0.899159784024233,-0.0138330243894786,0.0240754905721873,0.029679736216043,0.284082732905978,-0.64175939377395,-0.251285726236634
621,621,-0.00514659343469545,-0.0515929420637777,0.899273890977847,-0.0100515327938011,0.0236649425854486,0.0259301846847834,0.294047297744069,-0.662103278051224,-0.400168170450613
622,622,-0.00496103483621318,-0.0513109525550848,0.899351277292933,-0.00436447266231323,0.021924988895424,0.020035344720155,0.287303507042669,-0.592074540552655,-0.527733327774949
623,623,-0.00476114483645863,-0.0510342084959315,0.899389480351075,0.00115057548539296,0.0195278448154208,0.013209037200405,0.170330276883041,-0.603224640424365,-0.617142478907013
624,624,-0.00456618710914398,-0.0508156198962223,0.899386713432027,0.00665732464220055,0.016663792624844,0.00616968285710463,0.159293553244932,-0.667592992980493,-0.734282342791125
625,625,-0.00439546898378416,-0.0507081285472432,0.899341806927864,0.0111610640554101,0.0132673478909427,5.04991333960929e-05,0.130952180491382,-0.719240626340719,-0.737131964718347
626,626,-0.0042349649200963,-0.0506903583808024,0.899248692199872,0.014929285839418,0.0076662340074558,-0.00496757081911504,0.108051825657345,-0.713926882204464,-0.709271055808414
627,627,-0.00407214274309972,-0.0507277671666719,0.899112081478782,0.0179986364877764,-0.000585433059522329,-0.0095158915214236,0.0971342372671763,-0.753278939377776,-0.563305837221299
628,628,-0.00392848177480535,-0.0508534456382064,0.898946745054799,0.0198767102598764,-0.0100697441344242,-0.013834684179969,0.20935132809615,-0.74929059021311,-0.449367378212806
629,629,-0.00382534113723312,-0.0511000177276227,0.898765783527093,0.0205723660994955,-0.0210726103539963,-0.0178835094378892,0.192130852435101,-0.663480034817967,-0.378180911627419
630,630,-0.0037839431941072,-0.0514995497881044,0.898580007213954,0.0197463437636978,-0.0328491473290636,-0.0215549285619617,0.192793623733972,-0.633355796881597,-0.295243241757444
631,631,-0.003840973309782,-0.0520570105211682,0.89839826359429,0.0156061817901202,-0.0442771728899193,-0.0250951246659822,0.22458101638611,-0.654564019583587,-0.266460757042122
632,632,-0.00398233827570647,-0.052751043462291,0.898215730516047,0.00904102286895174,-0.0557520722324124,-0.0285816038363181,0.256543194890052,-0.659399178134062,-0.333523732860317
633,633,-0.00415291482760586,-0.0535736812797149,0.898019810156453,0.00251093606190326,-0.066764497519458,-0.0319964324412331,0.155167182841655,-0.667705298719122,-0.356092472027128
634,634,-0.00429748707247396,-0.0545167837514842,0.897796453970798,-0.00242899121560924,-0.0773750714383174,-0.0352175475970561,0.023281322886518,-0.471693653489425,-0.464172873393095
635,635,-0.00436076559829058,-0.0555719936033126,0.897530230668045,-0.00268965323436647,-0.0870353708050256,-0.0378695334614114,-0.0708296137506289,-0.195792629904502,-0.49849140380265
636,636,-0.00439993072737229,-0.0568980159975483,0.897170631403559,-0.000350805908600492,-0.0968077518216102,-0.0403836900670703,-0.14783508492236,-0.096205626695069,-0.575487933576134
637,637,-0.00445160698118189,-0.0585002773554938,0.896727465680318,0.00309966557373875,-0.106635148378311,-0.0426918591962719,-0.015115680096916,-0.136457555412025,-0.674173383550557
638,638,-0.0044296392960516,-0.0601395109702129,0.896274326157296,0.0069431215549387,-0.114595871674714,-0.0442448056176537,-0.15653360625169,0.143053035487769,-0.314125935057394
639,639,-0.0042479155044134,-0.0615755028317711,0.895884293962291,0.0149799286765685,-0.118286612840899,-0.0441642418290353,-0.235369434231504,0.121783610622433,0.120092481491081
640,640,-0.0038204501964573,-0.0625673697865113,0.895630564443947,0.0267595463253038,-0.113896332175226,-0.0415815226871652,-0.255334462688924,-0.0337849724442569,1.00510523284279
641,641,-0.00299851694592709,-0.0630490552685641,0.895583116121319,0.0428676405816029,-0.0964927260912839,-0.0329978074798981,-0.113482116124172,0.253186310540273,2.01298115063211
642,642,-0.00183974451843994,-0.0631784089214885,0.895694913909209,0.064755283391664,-0.0667983715211107,-0.0185423071908307,0.264359508238674,0.852964484059633,2.26988505887201
643,643,-0.00056778071475534,-0.0630519181154965,0.895864243081454,0.0898167504019988,-0.0284273055720069,-0.00324048740834864,0.393107525150598,0.981653451970042,1.7058832567768
644,644,0.000593838717268309,-0.0627681779005429,0.895988819689448,0.112382521099542,0.00647676216659239,0.00897874989159135,0.399717151803271,0.630620315871857,0.674037419321698
645,645,0.00142170538465837,-0.0624276463959804,0.895965372616452,0.126000283650847,0.0277388439011395,0.0135274078007609,0.0782628648817986,0.226260218206636,-0.492716614904988
646,646,0.00182656773342292,-0.0619272917727317,0.895726431178717,0.124027982689393,0.0401694793768378,0.00674422676307698,-0.201230338202106,-0.229292831603277,-1.13884041033899
647,647,0.00195647909917452,-0.0612047230272502,0.89534715553,0.109942355823079,0.0524364672080172,-0.00892336286746807,-0.341929733641927,-0.771077315104724,-1.4093941019284
648,648,0.0019443548630553,-0.0604207968618849,0.894933583868672,0.0855676503307122,0.0587518187967681,-0.0279140046389386,-0.0285474120135193,-0.655809148446973,-1.24419366378645
649,649,0.00192371886471838,-0.0597337054423683,0.894585929488104,0.0577335284796683,0.0651561159382361,-0.0439142072573949,0.194295112901386,-0.548713332557041,-0.787575543706546
650,650,0.00202902701809875,-0.059299103063405,0.894398656131402,0.0356099631997276,0.0733500459962688,-0.0503010384794217,0.19537839214184,-0.414542879946138,-0.00321262739319431
651,651,0.00229732620223098,-0.0591602507416054,0.894388092115968,0.0235256903449782,0.0682662403688211,-0.0443280533315136,-0.0121327390257759,0.274458252903376,0.802056290259248
652,652,0.00263972299635214,-0.0592118471139186,0.894485402146485,0.0192582948885763,0.0507459722204568,-0.0295466809643591,0.0179960678891158,0.86102598247709,1.29907075420716
653,653,0.00300241446463789,-0.0593850796000182,0.894653806002548,0.0182905657329514,0.033481223330238,-0.0101312794557795,0.437036716059138,0.770933965706712,1.50901127283257
654,654,0.00333145817256926,-0.0596110567486298,0.894856650556846,0.0201310500754779,0.0191500184280285,0.0094681797546751,0.211964520509826,0.935720971413065,1.16520578162171
655,655,0.00357284986154721,-0.0598208427250035,0.895057455473162,0.0203592204488894,0.00942556343769055,0.0239624872638042,0.265147885867483,0.741618999974156,0.769192674953773
656,656,0.00368292996828264,-0.0600432107883786,0.895274822245241,0.016538576918255,0.00611803828064686,0.0328521005141766,0.472497956680535,0.663843296404201,0.471544125945658
657,657,0.0036984320108732,-0.0603229278456885,0.895530261385349,0.0129871712742328,0.00770156870442745,0.0394636814816938,0.0982622679266682,0.586956755654376,0.113436672966563
658,658,0.00368590337850706,-0.0606159242854004,0.895791591791642,0.00916638335772528,0.0114998929367509,0.0431600065708676,0.0922158812561178,0.753111452282936,0.0342835669403392
659,659,0.00371159297839205,-0.0608789854910854,0.896026205594746,0.00585974695566106,0.0154916085553639,0.044359476115131,0.114561478044971,1.03556169332552,0.0601085469029036
660,660,0.00384134687009486,-0.0610692362626145,0.896201282286674,0.00427265499534394,0.017195695254807,0.0432959914473148,-0.102861965566198,1.35322053837931,-0.0175655858321642
661,661,0.00411095060469326,-0.0611766003879088,0.896316427950404,0.00517585493565922,0.0145860242234026,0.0394238677037496,-0.444811529131456,1.38511266113408,-0.280944049559101
