,Frame,CoM pos x,CoM pos y,CoM pos z,CoM vel x,CoM vel y,CoM vel z,CoM acc x,CoM acc y,CoM acc z
0,0,0.134555781452286,0.279820885896371,0.893458718883175,0.0723650138272543,0.0542410223823255,-0.0124550043070204,0.362252890345767,0.113981943471597,0.206834015578986
1,1,0.135333725466697,0.28033819643755,0.893491798124182,0.0761247358616002,0.0525641184450342,-0.0102865598587009,0.374401018694589,0.032731904649416,0.209421314791049
2,2,0.136267006813368,0.280878784599423,0.89351150694447,0.081451650562241,0.0512070513623111,-0.00832205465357327,0.273452441973402,-0.0327796467437581,0.120088573812207
3,3,0.137421622953792,0.281452895065682,0.893494788641586,0.0891910187313415,0.0506487120568393,-0.00703050991065845,0.172976204148616,-0.0373072686003042,0.0828751497471776
4,4,0.138856400300983,0.282091166509707,0.893435622279544,0.101858134550495,0.0504329586213454,-0.00650555032368349,0.137801015662129,-0.000608888482653542,0.0822710211851262
5,5,0.140527297686709,0.282786236130602,0.89334963417714,0.119342006224125,0.0512647444015526,-0.00643965982111722,0.0924306768635343,0.0363066398394691,0.114837872770396
6,6,0.142346034208894,0.283491274642635,0.893246655960921,0.13887224053371,0.0520752379301598,-0.00669746512127259,0.145766319245412,0.037410232333457,0.186791044844686
7,7,0.144224400669539,0.284159636011886,0.893136976260679,0.158297808053419,0.0527978470188995,-0.0071363492674789,0.152638301151194,-0.0187576967009604,0.160301410901486
8,8,0.146074272570532,0.284745012289355,0.893031617024712,0.17430757413406,0.0525808318014982,-0.00746861783583525,0.231322413545377,-0.0234057845939685,0.161187718418877
9,9,0.14789500234476,0.285253323530562,0.892922910748748,0.185825184392195,0.0499156535310367,-0.00795652250590393,0.365644065268582,0.0920504505140963,0.252135307627434
10,10,0.149745405177704,0.285715163543885,0.892807204291613,0.193539936670636,0.0456328287458627,-0.00867353232525162,0.471459951541534,0.284433359783628,0.24885206278283
11,11,0.151626555311944,0.286122118325309,0.892701457111062,0.199117849040899,0.041345406439851,-0.00926760173351674,0.501713833042899,0.315186460604456,0.239665563391285
12,12,0.153539444609666,0.286466472010361,0.892620969335493,0.204256725297907,0.0379546541524997,-0.00950139896358957,0.478754576011448,0.151917248431874,0.154647320049561
13,13,0.155484983461013,0.286741147739154,0.892579116879687,0.210492783339202,0.0323371974016962,-0.00885642776380756,0.420509616044868,0.120991208427148,0.0524951307787549
14,14,0.157441244273342,0.286928080503013,0.892575010541495,0.215239889719352,0.0244788702547388,-0.00717790893769648,0.3960205375703,-0.145752845892934,0.12338615454855
15,15,0.159407109715072,0.287034476156422,0.892601791798573,0.217438579061438,0.0142406669979275,-0.00485097575199504,0.342292514641532,-0.41741173191642,0.208209578023869
16,16,0.161414720394617,0.287090431872953,0.892660479966702,0.217841693787625,0.00345152782862539,-0.00215723599787404,0.531843357850417,-0.656724152855404,0.315899481668396
17,17,0.163496494875418,0.287124385937081,0.892749421775811,0.218704683786909,-0.00565343194289806,0.000737372871824685,0.560645569425692,-0.785306334881573,0.550180822207122
18,18,0.165685285202829,0.28716311857317,0.892864672264193,0.221403832402265,-0.0121075715593803,0.00418853079657512,0.461551797978925,-0.805619591320124,0.58665106871819
19,19,0.167990023660007,0.287197057900209,0.893019545527133,0.226394087408784,-0.0160929045847141,0.00949334907215567,0.514940465165003,-0.762058659721165,0.669572815344992
20,20,0.170389045148648,0.287206496276965,0.893213649390959,0.234227686219578,-0.0177695122680674,0.0169556973863468,0.65277949249618,-0.737820319380367,0.682110206228101
21,21,0.172869624230957,0.287202415900592,0.893421786841141,0.243950008587847,-0.0174320387232535,0.024926268447282,0.951535284893499,-0.722030029085563,0.63540421069588
22,22,0.175419019987726,0.287196555357877,0.893619259815806,0.254939390797884,-0.0176812092921053,0.0314984092354775,1.11042699295205,-0.622338334183025,0.396943263379208
23,23,0.178024486164106,0.287201478345143,0.893781677030763,0.266248490882047,-0.0201772171284164,0.0347875038795107,1.22855084418071,-0.558598386868179,0.1072305500301
24,24,0.180669407660043,0.287236577911615,0.893919826481298,0.278189522970883,-0.0242342655613963,0.0343779468441477,1.23012068711972,-0.516572783345503,-0.132397148421365
25,25,0.183362817006031,0.287293797896547,0.894050454946881,0.290739662724052,-0.0272641438698811,0.0315034429174353,1.2598087151945,-0.668655063075663,-0.248210520110321
26,26,0.186130301313366,0.287345479174859,0.894158210975815,0.303261134066477,-0.0300095950734023,0.0266594529365217,1.36883879099484,-0.689395821677434,-0.370003303270595
27,27,0.188997243383195,0.287364233375743,0.894227444430978,0.315396050899748,-0.0322413937556178,0.0206778391850008,1.41821090931662,-0.724080569512265,-0.431337876082946
28,28,0.191988806104536,0.287322827852711,0.894242007719042,0.327327931503185,-0.0340280965071588,0.0140475243039052,1.41184003884238,-0.730693668736458,-0.54907118497099
29,29,0.195091256203003,0.287244758654694,0.89420732358746,0.339345399722876,-0.0357433402642166,0.00631651104585682,1.3658453098004,-0.635804790622372,-0.712731489764253
30,30,0.198287664345487,0.287149870434897,0.894134816886424,0.350584522637806,-0.0374080087686381,-0.00290460128221521,1.40051180463723,-0.55499120639309,-0.77542811651348
31,31,0.201598260022426,0.287004822777428,0.894016651655079,0.361887130085166,-0.0389215686216162,-0.0129896746519796,1.42326154830694,-0.462989051911289,-0.867228459695772
32,32,0.205043400986362,0.286775337029757,0.893844602537625,0.372474090074626,-0.0412235127414669,-0.0229588699348029,1.53794840328139,-0.339809695954226,-0.886485153311448
33,33,0.208643644357668,0.286426239749863,0.893610030233627,0.383708371441872,-0.0451012046950207,-0.0320724823398773,1.58167486625009,-0.246313820894527,-0.919769407489524
34,34,0.212376385876663,0.285951824014889,0.893316263311009,0.394954712984171,-0.0507675545659295,-0.0404142239517559,1.70144546906154,-0.125503086208588,-0.927055893403778
35,35,0.216227912926187,0.285375081434152,0.892969073021143,0.405979255535484,-0.0577788628797217,-0.0485087051428861,1.84704497614883,-0.0870322782356356,-0.908946978715955
36,36,0.220232297243908,0.284702826357625,0.892562848064801,0.417636330529863,-0.0661986701776071,-0.0561572074312165,1.93995779899851,-0.0779636034895691,-0.925765147069392
37,37,0.224423671940446,0.283941341304981,0.892091540982986,0.430376861520677,-0.0748551889067579,-0.0632796204399876,2.03434944951439,-0.142995001119421,-0.871825363901608
38,38,0.228836255811805,0.283096489303395,0.891548729313446,0.444822452825566,-0.0833430096688183,-0.0699708745903843,2.14793082705053,-0.24055815714051,-0.878708540397552
39,39,0.233456714371685,0.282139736524465,0.890909593322123,0.461920934252533,-0.0909573714960527,-0.0764522623025565,2.22520602517337,-0.386685738001607,-0.865751009951084
40,40,0.238262430372515,0.281065841916781,0.890177744351668,0.481978278898178,-0.0990338474148864,-0.0829978654246364,2.28970241658145,-0.482927268485543,-0.812641243850387
41,41,0.243273777558593,0.279915550937985,0.889388990239263,0.504003458648805,-0.106352237330591,-0.0893445752273117,2.36358576054599,-0.570918565347658,-0.726466730120709
42,42,0.248511163909259,0.278729791075191,0.888578920218854,0.526289284850376,-0.112776420772372,-0.0953594038398458,2.4150244042623,-0.615398145506301,-0.675674615489117
43,43,0.253995025990242,0.277549645573829,0.887782980024114,0.548080854701279,-0.119065813035086,-0.100635073622569,2.48416218323498,-0.579366815648909,-0.614603775953956
44,44,0.259753731834635,0.276374839514259,0.887001033314823,0.569901204216703,-0.124729974938654,-0.105170537676971,2.48707883629424,-0.568409551465626,-0.5043119033376
45,45,0.265773802960342,0.275177708316088,0.886209033843553,0.593935140363791,-0.129737622360626,-0.109053536307163,2.41804862054784,-0.579737386738164,-0.517911768223987
46,46,0.272013003202553,0.273958555267684,0.885406374345699,0.618537225926249,-0.133779405724151,-0.111981044078626,2.47629439070772,-0.619543097158503,-0.35950164622352
47,47,0.278429261980018,0.272717953893179,0.884592316627044,0.641601975510817,-0.137819575529382,-0.11341448560292,2.54317831669548,-0.601060532819358,-0.263559577894511
48,48,0.284980700077349,0.271456763407896,0.883766112228048,0.661775739643373,-0.142804974300772,-0.113058210392053,2.62334888027644,-0.649676444953609,-0.196776849904643
49,49,0.291641034823141,0.270127007355452,0.882898180778432,0.680254385723348,-0.149355453328747,-0.112268891109722,2.63954248384427,-0.763413133049903,-0.245715411137756
50,50,0.298438873752413,0.268729369749,0.881989646354048,0.69692962063426,-0.156022364111863,-0.111220505399187,2.56747091091817,-0.800075612602931,-0.207086012437302
51,51,0.305414613477676,0.267337772761848,0.881085977275482,0.712139384064729,-0.163276224701092,-0.108916268700349,2.54131197622764,-0.819143835267245,-0.092055333484055
52,52,0.312608340360084,0.266025670499139,0.880232609848695,0.72613976147881,-0.169023304155172,-0.104262060965589,2.54710490171798,-0.908603892003698,0.0219779081777623
53,53,0.320059828217585,0.264865775990615,0.879474879858789,0.739004186577274,-0.170681080426949,-0.0963889559955397,2.5560617701363,-0.905865601192138,0.0759444393163886
54,54,0.327785686054586,0.263873353733357,0.878755668037255,0.750204983511591,-0.168796567778442,-0.0834235324691923,2.73616606082758,-0.803372356373511,0.390456766802624
55,55,0.335759571332935,0.263000441065227,0.878046759002466,0.762033211692254,-0.160976803966317,-0.0651025004985854,2.52305438032211,-0.782583916556492,1.0034429423083
56,56,0.343956493184279,0.262222962810376,0.877436676763143,0.779058337015698,-0.14852222458891,-0.0444129601297138,2.08307053397993,-0.738707756245776,1.64114394717369
57,57,0.352351354090507,0.261515082923554,0.877013937840242,0.797139473830395,-0.13884602322014,-0.0245761091669312,1.84654615971399,-0.40380917708227,2.13477020304036
58,58,0.360918979808854,0.260849533822604,0.876867651172324,0.814519159478488,-0.134620192134667,-0.00856398071667609,1.79775345872597,-0.101615741240277,2.50709249962814
59,59,0.369754570122616,0.260343250279928,0.87707870534983,0.836086943010362,-0.132636666516866,0.00417939989911874,1.67102582966747,0.0866977820150044,2.51370787187598
60,60,0.378875656099973,0.260009882722992,0.877594223631162,0.862698378077962,-0.132200673663396,0.0154516275906611,1.35780951882896,0.502564105708357,2.18709596013973
61,61,0.388140160360117,0.259668025236949,0.878302986626033,0.88873779050028,-0.134640506401171,0.0257664577128109,1.19786631058952,0.59058222219279,1.3681252287997
62,62,0.397405047247326,0.259137706713942,0.879092095026505,0.911914588315237,-0.132161973963386,0.0338385087366547,0.921896309830668,0.0992237786402814,0.544696143220567
63,63,0.40652609545823,0.2582407066105,0.87984692311168,0.924738834846751,-0.121525356547056,0.0394420979747517,-0.0900655503703199,-0.349018181154342,-0.0130582614876562
64,64,0.415464755915721,0.256807892163941,0.880573427213097,0.922974813386848,-0.112506083461574,0.0396241946137953,-0.718247168381935,-0.290918202341503,-0.337072004123911
65,65,0.424315522711722,0.254958714295014,0.88136151600638,0.908550602661321,-0.109982814576229,0.0347204612583366,-1.40567990923188,-0.250026627151716,-0.286227369315507
66,66,0.433133677077792,0.252952029324348,0.882214068393234,0.88684856441796,-0.109362529487354,0.0301187463908586,-1.9206563280992,-0.313281460689787,0.203711428330872
67,67,0.441974980631039,0.251049393345456,0.883122015956262,0.865587086203601,-0.112763458264214,0.0306664008406066,-2.30318289350886,-0.0798489409305612,0.671089394038315
68,68,0.450895162105857,0.249514262307415,0.884064681752223,0.850090207124313,-0.119249908494781,0.0398563881246609,-2.22194216284422,0.554552222828083,1.08692259513516
69,69,0.459950951230777,0.24854569415531,0.88504297973648,0.837908518326135,-0.125492904226057,0.0603622531614289,-1.82481083802425,0.889530011102421,1.57006873731391
70,70,0.469103851525946,0.247977522617771,0.886061808128363,0.826723910569349,-0.12488276056768,0.0860072361945049,-1.10965390532258,0.885918016496533,2.10401809064124
71,71,0.478266524867673,0.24752181975211,0.887100488381718,0.819013093336496,-0.113173183703079,0.113754007577698,-0.401308738539248,0.388528060113404,2.22040332634152
72,72,0.487352080719121,0.246885021967916,0.888138738152546,0.81792493360916,-0.105520530407648,0.139409776128741,0.154409658630743,0.734704869039584,1.82359097785126
73,73,0.496274285895087,0.245768641150378,0.88915625405651,0.821547857467037,-0.105228809172184,0.15599126673084,0.504642553998957,0.97818392811114,1.15465271222997
74,74,0.505020279069131,0.244031222920054,0.890210740427289,0.826565240024102,-0.116405372327597,0.164837713508268,0.962100800868599,1.21547308674524,0.900807787113567
75,75,0.513648709968839,0.241867371112198,0.891314918508489,0.833314155557454,-0.136568927777811,0.169169414771852,0.914288802524126,1.08625306596871,0.267244649432352
76,76,0.522181040889592,0.239479325506744,0.892381223548309,0.841109892534534,-0.156422641418708,0.168893878919943,0.725157502395138,0.787406151133827,-0.271891720429395
77,77,0.530638631990231,0.237068913061666,0.893321799999655,0.849999533975897,-0.172200181612825,0.163192612187439,0.269881286751635,0.69670758707081,-0.860294005914345
78,78,0.539042850348837,0.234838041034664,0.894048189673135,0.857230054115888,-0.18130883660585,0.150891494189619,-0.0405928431676159,0.589376288459448,-1.4788708143578
79,79,0.54734762621347,0.232748004648137,0.894575225535323,0.860643129812205,-0.182208926172321,0.130122716830144,-0.247466085447727,0.359952634591009,-1.91741256945952
80,80,0.555542773846024,0.230662173098914,0.894965728576522,0.860974530027275,-0.178228503150816,0.10108534700039,-0.38200715336181,0.147654170339462,-2.36908863346054
81,81,0.563703001136024,0.228636476212587,0.89520173275028,0.859950953319209,-0.169039624870749,0.067483608091138,-0.225725242151995,-0.0987929528906007,-2.73892393500307
82,82,0.571901917385207,0.226726627426079,0.895263470416873,0.858694018460032,-0.158328127537513,0.033650735089047,-0.00909139988786475,-0.182025313801025,-2.87096409464423
83,83,0.580211968499157,0.224987236167283,0.895128881348494,0.858854827586506,-0.148244812994462,0.00353837709310876,0.2302511439773,-0.225418088314389,-2.81268609722571
84,84,0.588619338242989,0.223401684279984,0.894778027670547,0.860946474259584,-0.138708556254329,-0.0234031646427276,0.439363244079039,-0.195354394271018,-2.65717848634116
85,85,0.597077252352053,0.221932267312262,0.894228682388379,0.865469947949825,-0.128098936920745,-0.050225930907009,0.540285497672665,-0.133132677597039,-2.54958943322972
86,86,0.605607263216546,0.220601524051044,0.893512594231476,0.871492594880709,-0.117259899441198,-0.075913923678762,0.636770979960027,0.0214370239974676,-2.41090817880273
87,87,0.614230205998011,0.219432786500827,0.892660122518499,0.877327318993064,-0.107103088046055,-0.0994939240344667,0.823391622944851,0.164446348480889,-2.30856654788356
88,88,0.622966406830579,0.218449913800172,0.891700103682368,0.882017131054736,-0.0982481730903891,-0.120196545896732,0.933084385736818,0.104957467638065,-2.09116728928624
89,89,0.631804030124072,0.217700633069938,0.890601145073143,0.885377548008573,-0.088784318096062,-0.138656507270942,1.11192973918749,0.010509463948343,-1.93101478332537
90,90,0.640727661159086,0.217166240278635,0.889346411529445,0.889965494629049,-0.0780471738941913,-0.154626663021262,1.24194538117707,-0.110573983582425,-1.79024633213916
91,91,0.649751719539835,0.216773847282305,0.887983685493843,0.89726707992505,-0.065115140193035,-0.167355647570673,1.27007829712817,-0.0356812519270411,-1.59367278546916
92,92,0.658890766157788,0.216454247362316,0.886558263008374,0.906935075274963,-0.0530317459514031,-0.17679029913496,1.40039219186842,0.134580474778722,-1.29780623996024
93,93,0.668160051866506,0.216141626797534,0.885112968213319,0.918257218541284,-0.0444367489506746,-0.182981446544514,1.48110975443904,0.361114557752319,-0.992178821093792
94,94,0.677503792990225,0.215904912404733,0.883570011854015,0.927413395687255,-0.0373767803491171,-0.185689568368644,1.64643100186602,0.361141087761643,-0.646763699924837
95,95,0.686908892914512,0.215792861824227,0.881902825939986,0.934614223551243,-0.0295742633221686,-0.185432125210064,1.78638598956358,0.287266665503799,-0.408213907283031
96,96,0.696456615169586,0.215709277081228,0.880222368442892,0.941393853184226,-0.023529624905649,-0.182413092059391,1.79283135424789,0.240875456002486,-0.194222169076
97,97,0.706231291084614,0.215555258205122,0.878630356698659,0.947300295346535,-0.020553564937074,-0.177139188512092,1.96251803659815,0.224863277282392,0.230321518774946
98,98,0.716320766666507,0.215230184029035,0.877221234267819,0.958350112482107,-0.0235096299174344,-0.168135553842799,1.8154095373006,0.162463172280369,0.814739673084718
99,99,0.726658046189633,0.214690090155881,0.875966684678029,0.975577619871962,-0.0352269331362335,-0.15317188839176,1.71330257886762,0.454302459532556,1.35948395482081
100,100,0.737188911312005,0.213999907959727,0.874790902235705,0.997277342238867,-0.0575687038949404,-0.132217941028573,2.25324710325719,0.41122212436659,1.65758960438673
101,101,0.748021779069336,0.213223461662122,0.87371577227247,1.0259895404311,-0.0839448269139539,-0.106305127331209,2.98403257817511,0.210615632457287,2.11295011223637
102,102,0.759264504279533,0.212425581003639,0.872765253439914,1.05788339679796,-0.100133632585767,-0.0808489095104856,3.57320870583938,-0.487701306537976,2.15232697236757
103,103,0.771024508060711,0.211671124639854,0.871964977542643,1.09177439834422,-0.100189228471844,-0.0584815923175698,3.83812155696026,-1.16053805642729,1.73535794849164
104,104,0.783441420044792,0.211021326645309,0.871236385160833,1.13009686966036,-0.0951692888544193,-0.039761272894031,3.70414809793333,-0.633089466569727,1.56593323208813
105,105,0.796442927269448,0.210432571718082,0.8705678656501,1.17378269687711,-0.0833359580453079,-0.0222548281607062,3.16161552474908,-0.468560051586177,1.08916018518326
106,106,0.809817990771357,0.209812377371331,0.870084829078046,1.21643204321387,-0.0656927306596013,-0.00463761383490304,2.87198143887757,-0.275765239551307,1.15896914049813
107,107,0.823356431211254,0.209070116464974,0.869908153105217,1.25629545630756,-0.0582955352787526,0.0132355070991579,2.17671182986322,1.04312428060299,1.82651978335379
108,108,0.836849187125106,0.208118123154797,0.870153808445382,1.29044731169583,-0.0643719090720036,0.0320367020351399,1.30568552129469,2.06820673476091,2.86247030883234
109,109,0.850532265952191,0.206863804408198,0.871011382057111,1.30511869388605,-0.0716542665152797,0.0497567162495521,1.65889016651177,1.8424726625752,4.29483492888277
110,110,0.864543754290043,0.20537254669053,0.872408904687926,1.31365247949446,-0.08061731226102,0.0688850260122799,1.59623529291418,0.923306478985929,4.989366303685
111,111,0.878529324146077,0.203793123749555,0.87406653035957,1.34144178206612,-0.0864946325311274,0.0944024915053194,1.10022263464168,-0.41496083045291,3.10549063230198
112,112,0.892136079830336,0.202268898119025,0.875701168800293,1.37899172112373,-0.106820368345998,0.121848092117155,-0.0502249760608891,-0.46187906355995,1.12052496849876
113,113,0.905011894837626,0.200937486232774,0.877025340678458,1.40432038259285,-0.131320946876503,0.139635963923918,-1.56805140702234,0.235804230868912,0.156348984494834
114,114,0.916830313419634,0.199858889355197,0.877929617654995,1.40380170570219,-0.147960893904729,0.138116971898132,-3.18165512879942,0.527587775921681,-0.387829442106176
115,115,0.927827071106959,0.198938470329903,0.87861132946844,1.37257531859678,-0.155703089683917,0.122666811736589,-3.49555701804199,0.435598751504894,-1.14970747652086
116,116,0.938493755597423,0.198078059067031,0.879235802527078,1.32159898807965,-0.156205609793078,0.101306887064689,-3.12259236311157,-0.191950752218875,-0.862773857213415
117,117,0.949322472324366,0.197179363898738,0.879961884208154,1.2665357418866,-0.151770062100736,0.0824992341360103,-2.89193262461007,-0.629822808352342,-0.362422007168051
118,118,0.96080494287254,0.196142987528469,0.88094326545953,1.22294200719037,-0.146953628017547,0.0762847294073526,-2.7502868191798,-0.567326534600252,0.473810205208035
119,119,0.973130521134963,0.194847684332889,0.882253593787273,1.20085835092316,-0.138598826750423,0.0845101251093594,-2.48160904480719,-0.412822550386493,0.600875712000311
120,120,0.985968608851358,0.193350284870488,0.883790200811979,1.18818113606468,-0.131103359270306,0.10411122366194,-1.83262569203312,-0.371654239957496,1.11228084730982
121,121,0.999029885591592,0.191820921130911,0.885439584328906,1.17918864259804,-0.12848981611169,0.129392157549191,-0.902737874519748,-0.0888993052362259,2.14756218134838
122,122,1.012026076941,0.190437581199095,0.887084720494841,1.174131700015,-0.133614509101139,0.151407978191528,-0.563025102624962,0.42891668640716,2.45732124957724
123,123,1.02467051585539,0.189386286427862,0.888604239909795,1.17129658426845,-0.13796175514393,0.166529182294552,-0.695420281496908,0.458769753571676,2.17930855577039
124,124,1.03698739851824,0.1887550839415,0.890050191515479,1.16825554684295,-0.130585055497211,0.178548056130034,-0.857575103575985,-0.019014216708157,1.72503113549786
125,125,1.04916812174985,0.188423331997547,0.891504878871045,1.16576924230043,-0.112694160116484,0.190823015638074,-0.752190969012701,-0.351432631711867,1.18294997802192
126,126,1.06117898314282,0.188269820228364,0.892889052009635,1.16463719587687,-0.0905492141586837,0.199540206661337,-0.631963300635912,-0.705414495855311,0.479666645896784
127,127,1.07298677481512,0.188175197475962,0.89412203220948,1.16287299509498,-0.0715925594797235,0.201842584577844,-0.559005194570667,-0.862319698227125,-0.58851704014453
128,128,1.08455837979497,0.188022255184836,0.895121177256816,1.15815868120546,-0.0635231713484362,0.194737414145367,-0.318343487978338,-0.755066950017888,-1.38127549676198
129,129,1.09581647430957,0.187859903040679,0.895889691587082,1.15158324140023,-0.0652170286472892,0.174325825902679,-0.338307138757891,-0.598594168585964,-2.11825147280469
130,130,1.10678706652492,0.187772485945487,0.896486573968847,1.14332908779566,-0.072817048900514,0.14270246614924,-0.441341316130189,-0.542553998510468,-2.72360647539278
131,131,1.11759164737013,0.187695394408551,0.896909606492908,1.13469316926442,-0.083437383354316,0.104907723275371,-0.57775407410134,-0.525003100621008,-3.17254796584993
132,132,1.12835130210103,0.187561414088188,0.897154042630193,1.12886290053244,-0.0954644366759979,0.0659464231760343,-0.701033315617814,-0.519830373562113,-3.57913835088561
133,133,1.13918668579929,0.187301029209973,0.897212519813496,1.12597424724905,-0.105493140037245,0.0304269163329831,-0.609429987631217,-0.554175390611079,-3.61075997335623
134,134,1.15011587894303,0.186931645837945,0.897066841112294,1.12607063227264,-0.112661327615242,-0.00246217014931935,-0.422538936886947,-0.599114552866826,-3.61623735883016
135,135,1.16106066872821,0.186499011061778,0.89672397608321,1.12785727637834,-0.119941051905782,-0.0360763966332763,-0.1334434244542,-0.500609774762292,-3.48969445810323
136,136,1.17199662045898,0.185973594188757,0.896211473734695,1.1277923377541,-0.12550378882234,-0.068994452053805,0.216177150578236,-0.318274329406502,-3.22832044886855
137,137,1.1828990800495,0.185324852746143,0.895555441400581,1.12454766368578,-0.129489886942086,-0.099724413640948,0.545394665110721,-0.177209144124914,-2.9329355828308
138,138,1.19374324302327,0.184521742643471,0.894780458728778,1.11902807028637,-0.133869242275652,-0.126322763681414,0.685339711062551,0.117471325646403,-2.6952694364734
139,139,1.20449793161775,0.183499585229418,0.893863990779942,1.11054695408351,-0.136695318367763,-0.147382469743404,1.01447386754716,0.248898117966581,-2.46839263937859
140,140,1.21517900818541,0.182278203200645,0.89279278225387,1.09958071866579,-0.138103056144863,-0.163505665256232,1.29885284718084,0.158938962280135,-2.12189192350977
141,141,1.22583099344379,0.18095310564195,0.891601860246245,1.09000031347062,-0.140376580970961,-0.175915673240714,1.4734968732944,0.0438416812734008,-1.87811041834832
142,142,1.23649768951928,0.179618989075531,0.890322683489763,1.08482610924854,-0.145823937103483,-0.186095684191496,1.56080239369284,0.0248069491971965,-1.8170526614597
143,143,1.24722302844502,0.178369313421877,0.8889830174708,1.08399410633404,-0.153195978603294,-0.195754052049145,1.6021987600801,-0.0678517559065295,-1.67970881826352
144,144,1.25784033450052,0.177220260774213,0.887508846166624,1.08385697371037,-0.155792901051896,-0.206638708416612,1.74896013909377,-0.239248854245808,-1.33955480380196
145,145,1.26831545749871,0.17610828316517,0.88588299694444,1.08437143212338,-0.158457026727698,-0.217560147786239,1.75496753469674,-0.233538701472787,-1.22241969437551
146,146,1.27889390242988,0.175006105414358,0.884207669863631,1.08834670612798,-0.164459246691035,-0.225810452813592,1.74730167639812,-0.326976645718887,-1.28387478670555
147,147,1.28982564885231,0.17388644845747,0.882574215724736,1.0964047574312,-0.167275883485301,-0.230475854154775,1.84395823397216,-0.60756821086325,-0.963727449010133
148,148,1.3013656047961,0.172722109127063,0.881065811752183,1.11193412666971,-0.160541786005773,-0.228915683438198,1.54578755216042,-0.828833684597079,-0.194549916380683
149,149,1.31358866267255,0.17151494051796,0.879658349554325,1.13732902008362,-0.143224921192849,-0.219126529364964,1.66549485779221,-0.933611127895689,1.00203627316074
150,150,1.32633145905423,0.170282071575707,0.878281682720214,1.17319644416958,-0.117888558413174,-0.199557048139157,2.60191285360399,-0.975748642950208,2.26946885319583
151,151,1.33949316667577,0.169019457904172,0.876948790291615,1.218284213927,-0.0981689691810771,-0.172627573634012,3.12422668008502,-0.625919448577201,2.73826955067037
152,152,1.35297163123425,0.167723432265428,0.875674703540797,1.26653479164196,-0.0927616862886635,-0.144314136602669,2.68681208026506,0.323454023034438,2.05270284241272
153,153,1.36666384805002,0.166390685577394,0.874476004578402,1.31394320033645,-0.0971248044287267,-0.118595060969605,2.64652287340804,1.25006736600737,1.49358963416412
154,154,1.38044030626588,0.164888879722996,0.87327548574453,1.35956615700689,-0.101320003786277,-0.0959972320584295,3.19149319208508,1.0411297533635,1.26704537098187
155,155,1.39436878008097,0.163220498734202,0.872070600057264,1.40214956679304,-0.10726966621399,-0.0761973126672344,3.62287304373547,0.429446603647033,1.31619892476237
156,156,1.40864189829962,0.161584858868583,0.870987007505412,1.4395278610242,-0.111343697508298,-0.0578871243475762,3.84816383617921,-0.159437298800694,1.41369014422999
157,157,1.42345346192181,0.160181602921256,0.870141480845615,1.46790671396253,-0.111255937225536,-0.0399589704659743,3.48527408194621,-1.00547208513344,1.79618518021419
158,158,1.43899847078729,0.159209643982519,0.869641853183527,1.49004151172242,-0.108834673104474,-0.0208717026242199,3.2178096697678,-1.62995766065648,2.49590240311903
159,159,1.45587679867304,0.158830743561628,0.869575551999601,1.51983159444316,-0.0964537634066333,0.00912169595410935,1.81541126726692,-1.83237172122018,3.49642749401497
160,160,1.47395573321025,0.158906730661429,0.869873041025662,1.55539542214789,-0.0737435852535052,0.0468796904880653,0.38079605631025,-1.98972571080028,4.41814913292817
161,161,1.4923333110793,0.159186524878506,0.870402600210978,1.57672459971539,-0.0501196037771237,0.0840170445413409,0.303957575024674,-1.08668492521057,5.21384433113141
162,162,1.51011075489464,0.159424019173877,0.87102882898278,1.60629018304831,-0.0302422794540466,0.120952227388197,0.11470310700307,0.694778694907764,4.60584907237322
163,163,1.52639193796071,0.15937876272729,0.871611500745602,1.64307460463893,-0.00300053230895306,0.149813993401578,-1.35446759208341,1.53649458385316,2.69111487754608
164,164,1.54067151907689,0.159023955659182,0.872055829299616,1.65399460766471,0.0233904386332896,0.154778323473948,-3.25522297185576,1.06380070752352,0.21097523107238
165,165,1.55355030051755,0.158517341182783,0.872465931884686,1.6228166417069,0.0245609427557011,0.13464985109086,-4.05009488524855,0.951028582140687,-2.01999592808843
166,166,1.56579119619789,0.157902056530863,0.872990889559055,1.55859975042028,0.0195122876650003,0.0957407960397619,-3.67125545716079,0.342838215080447,-2.06801473119452
167,167,1.57815530226033,0.157227109557312,0.873767576863723,1.48447415068384,0.0123806832317348,0.059788987763483,-3.11279167048336,0.119196321373921,-1.1913079112158
168,168,1.591401287881,0.156547760124859,0.874922251686608,1.42307670860158,0.00312039607176646,0.0459147922206278,-3.41924457626074,0.357526544479173,0.0487243173183211
169,169,1.60581546136374,0.155923045775019,0.876594996100199,1.38305832717765,-0.010374107803006,0.0581303044389403,-2.80439258416653,0.220963786400248,0.658629803372267
170,170,1.62088745653019,0.155329262476006,0.878700001316414,1.35743482565664,-0.0284758148888456,0.0872734915479635,-2.2993973241565,0.330593973084653,1.8571091702127
171,171,1.636180066577,0.154697394249715,0.881020138354131,1.34443645056798,-0.0397376932784286,0.125627101421716,-1.80716362775016,0.361968930369626,3.09193668338936
172,172,1.65125752869211,0.153951588787047,0.883334035574534,1.34337716523695,-0.0416259225102322,0.163305872273035,-1.610148802741,-0.162790561066495,3.75699066703164
173,173,1.66568508350863,0.1530088307215,0.885414254767679,1.34402147106754,-0.0472112905080872,0.191891559896643,-1.44224109914641,-0.0562832261641057,3.32128418093688
174,174,1.67935674972367,0.151819007607583,0.887298429716724,1.33933045822768,-0.0602431972171035,0.21118156171379,-1.26757337463996,0.164017817462893,2.62955820909965
175,175,1.69256302874198,0.150431888257721,0.889138843951132,1.33090676344907,-0.0803773058680101,0.226026916429891,-1.19779191368986,0.532348327981087,1.56384996889221
176,176,1.70546440607259,0.148908563152359,0.890875843164545,1.31655366070501,-0.104641637515422,0.234161066557021,-0.944117974883403,0.970818654370306,0.255994428391683
177,177,1.71822141360227,0.147310222858352,0.892448977455078,1.2980397961745,-0.119954606010585,0.234603988355413,-0.768116352207042,0.896151162153123,-1.02114278521223
178,178,1.73099494281547,0.145699013312707,0.893796522248369,1.2822785311186,-0.121689033544362,0.226374187183606,-0.722671928037831,0.778328161714165,-1.93414962371893
179,179,1.74381408016641,0.143959505521494,0.894931898544141,1.2707686441435,-0.114250666924767,0.205192958542487,-0.558314339172466,0.810461899566187,-2.69230918022714
180,180,1.75657453810062,0.142043779317542,0.895901045968811,1.26190859172891,-0.103349076841888,0.172421372585215,-0.587946545419847,0.871979188044027,-3.19159115959959
181,181,1.76923783323916,0.140118668367176,0.896687916178161,1.25660840480688,-0.0913643991957842,0.133427814770411,-0.356009575850805,0.819368737292784,-3.2899131901759
182,182,1.78176570449901,0.138354147306015,0.897273417977622,1.25339470170058,-0.0801522980693148,0.0934804944768583,-0.365888520190552,0.874369599341832,-3.5352949011699
183,183,1.79412013221729,0.136923068425204,0.8976354455526,1.2510266103099,-0.0703931382202228,0.0573123839720196,-0.444946496819652,1.03985317324765,-3.50757363843718
184,184,1.80626150340615,0.135912777067318,0.897773564561711,1.25006704269434,-0.0620909444766888,0.024342421219712,-0.558873997346821,1.11603433369726,-3.55492789645548
185,185,1.81821985589056,0.13521090164901,0.897704840932043,1.24967320822976,-0.051300220474402,-0.0085562242444654,-0.380509903631361,0.920864735441783,-3.44856553295885
186,186,1.83006109571532,0.134693210057768,0.897429972893206,1.24706706036053,-0.0399309166049427,-0.0407714197302714,-0.221734867799656,0.58068046318972,-3.32732247485011
187,187,1.84184986979459,0.134235815118434,0.896947701657837,1.2397104902712,-0.0288238284087514,-0.07203460177517,0.11722731105918,0.198899637335579,-3.05452204408947
188,188,1.85364944800836,0.13371453161636,0.89625475627227,1.2297966251865,-0.0188720947561746,-0.101909776447054,0.169004157074447,-0.281315660828933,-2.73823473480208
189,189,1.86539526085558,0.133092836808283,0.895303962186869,1.21826780375294,-0.0115082682491757,-0.129919030206851,0.172788499804544,-0.38204329829146,-2.7655952820615
190,190,1.87704470277143,0.13245571026267,0.894101487326453,1.20509120900744,-0.00804414922118733,-0.155379897715998,0.242781396367758,-0.216505209812805,-2.6614708765555
191,191,1.88869158537941,0.131860980228104,0.892719674963061,1.19192619786408,-0.00849391312728647,-0.177174024305378,0.439503727781251,-0.0949800416983922,-2.47220019084215
192,192,1.90042882322733,0.131367189227241,0.891226076958022,1.18143063515589,-0.0118988425896636,-0.194992234642871,0.760355146469769,0.0955136211634316,-2.31243707734759
193,193,1.91234955380142,0.131033706196727,0.889683071251109,1.17731445772439,-0.0134762101624378,-0.208146094450084,0.934423051812349,0.359828228440266,-2.05294941633902
194,194,1.92433616508871,0.130902361732901,0.887977699724085,1.17790858242953,-0.012503373415734,-0.216936784611282,1.06658399064275,0.539142051726564,-1.63285237057033
195,195,1.9363221660259,0.130937641879792,0.886067433192442,1.17804223457594,-0.00957744266137313,-0.222673663095,1.42351909896785,0.44264695858761,-1.12964741122452
196,196,1.94847937820947,0.13108002376114,0.884109221626616,1.1799759450259,-0.00569608839411024,-0.224506499882871,1.9573102752729,0.401128684269876,-0.501052436209566
197,197,1.96098255529273,0.131265315653824,0.882250751574389,1.185567870965,-0.00434798229020423,-0.221995885896363,2.2423739311859,0.417568309940925,0.352637075329527
198,198,1.97401025079111,0.131425857833887,0.88063296020971,1.1991032284333,-0.00697009728047449,-0.214496997316761,2.49824895513194,0.0977320291328053,1.03277300598521
199,199,1.98755822826524,0.131629439512727,0.879285323647955,1.22526978756898,-0.0197615113364215,-0.198205485119559,2.0686593289874,0.2376948859865,1.7544532007425
200,200,2.00151415879411,0.131915675976216,0.878101005961213,1.26093713888199,-0.0433359452265207,-0.174522100180864,2.25661502810486,0.400626508817134,2.40646574394205
201,201,2.01589576321019,0.132177044143896,0.877014628424611,1.30586513412255,-0.0578341155116168,-0.145608760437238,2.87229461285335,-0.34029558571811,2.14679019003548
202,202,2.03071800152077,0.132308765045469,0.87596093790285,1.35437035132017,-0.0648688830646132,-0.117511947484901,3.4663008218631,-0.718065556406603,1.93528621528756
203,203,2.04599303402902,0.132206527560378,0.874874823833972,1.40031187867169,-0.0630557102162939,-0.0953998991179043,4.05310549560757,-1.01391171259523,1.53104938181112
204,204,2.06204090645919,0.131875084934148,0.873610722202116,1.45094263351908,-0.0533550582484864,-0.0807989433948057,4.16029700105564,-1.32344506325481,0.949211170895745
205,205,2.07885260631083,0.131383735826564,0.872217954410372,1.51085281013813,-0.045999882300477,-0.069875507538734,3.9110866664797,-1.19747570216499,0.304303609835642
206,206,2.09594451296911,0.1307247449546,0.870922952298411,1.56686116577542,-0.0465269797971642,-0.0619927730697525,3.47203182418069,-0.375780749979354,0.207874831306053
207,207,2.11283318945912,0.129893598283388,0.869947467049256,1.61332157905532,-0.053977689897769,-0.0520282965688171,2.10202661069793,0.799770475457364,1.23844050424015
208,208,2.12903550233739,0.128890595915017,0.86950709867985,1.64796334100416,-0.0659797079025206,-0.0367686437479399,0.840345798960514,2.28656047233645,2.4073705705996
209,209,2.14455659437613,0.12763630703808,0.869778782623713,1.63439214050746,-0.0981708278621247,-0.0230761963838668,0.522003950194445,4.53387760905561,4.80634588474249
210,210,2.15971616687785,0.126139554690442,0.870627012824608,1.58903276400154,-0.133105914137101,-0.00914277262400279,-0.189259809798958,2.72670415702565,7.20735185362007
211,211,2.17450529501812,0.12453226490321,0.871791033502944,1.57966953124456,-0.132634783184226,0.0193397340823642,-1.8508904129617,-1.53764079628186,3.32703508403367
212,212,2.1889172209115,0.122939787508818,0.873003827828089,1.60369875202853,-0.155563551540433,0.053928170942681,-3.6595468614887,-1.06535825415892,1.02554798495962
213,213,2.20294531984827,0.121481146896288,0.873991608100056,1.61127718470496,-0.17338173941042,0.0860708005191644,-4.4402743750171,-0.28774777390224,0.153990391816007
214,214,2.21627663644932,0.120120196471921,0.874610167548558,1.59316463910896,-0.180170357136173,0.103672465163825,-4.28114227815353,-0.204875524008772,-0.519695746645553
215,215,2.22891681349698,0.118775076419627,0.875043560381795,1.5514905109923,-0.1802823593194,0.111722734118685,-3.74009698138246,0.148442356648506,-0.0164222673390213
216,216,2.24133547912258,0.117492341086539,0.875502043701544,1.4988182909105,-0.166293904434289,0.114314146699919,-3.42301168019218,-0.252186542883824,0.949312098394423
217,217,2.25400174658182,0.116317967084246,0.876190003989149,1.43892302736953,-0.154582594160964,0.115269484997796,-2.70050395507482,0.247595597403178,2.4869891897112
218,218,2.26738391518919,0.115295430938386,0.87730758472083,1.38779006242826,-0.137115516783871,0.122932563146069,-1.39374802218818,-0.498297038327172,3.79946347598831
219,219,2.2817672352582,0.11437028655758,0.87900482557392,1.36388299691687,-0.111576914302855,0.143835401793509,-0.826005022191705,-0.796208546500448,3.74991560850909
220,220,2.29683498135686,0.113501648662543,0.881148368077576,1.36164766524713,-0.0857298070676135,0.175645588530839,-1.01295821692818,-0.319863792887798,2.85242659334388
221,221,2.31215239481844,0.112755222216592,0.883512751904697,1.36604601149279,-0.0661643211738636,0.21290657987755,-0.851063965612371,0.514824429504199,2.71627687980847
222,222,2.32728716286113,0.112206057929275,0.885869613681756,1.37185307186788,-0.0525770906780888,0.245971307443128,-1.22859485524294,0.749285421038566,2.12025272001989
223,223,2.34180961726643,0.111939264714668,0.887985606999369,1.37349836570032,-0.043248877721469,0.264433524681585,-1.37391478187798,0.479022474602936,1.26065209521377
224,224,2.35565770008274,0.112108868798336,0.889930012376095,1.36885379007885,-0.0383420063199612,0.265842416126063,-1.2809029374662,-0.112571351376654,0.264216999877245
225,225,2.36912138652956,0.112662452273447,0.891864206414321,1.35893541202064,-0.0318121536669238,0.256301853124514,-0.754663620174431,-0.923774944744036,-0.685267494221727
226,226,2.38230094571211,0.113382703703548,0.89368692611297,1.34636177073677,-0.0262936728879148,0.237810926076844,-0.664504283075927,-1.20992887697435,-1.8574914454267
227,227,2.3952963053078,0.114053131207474,0.89529319004956,1.33474081116395,-0.0245720990294368,0.213659587414289,-0.69069295451571,-1.20848538838452,-2.69909919949374
228,228,2.40820674254449,0.114458345130084,0.896573962678639,1.32602633597285,-0.0307865210044755,0.18652248271739,-0.608475073485484,-0.7774791671945,-3.25303214781176
229,229,2.42099216740105,0.11459843847737,0.897527489126231,1.31941301620387,-0.0446296758405193,0.152689954093007,-0.450607827343851,-0.501144033726803,-3.65269377557805
230,230,2.43359022216137,0.1146218336725,0.8982281477927,1.31343650705236,-0.0621707583034738,0.110973918193311,-0.523632495639035,-0.620481354307695,-3.96623050188399
231,231,2.44606561334043,0.114535144167409,0.898676948227221,1.30764169976178,-0.0801241347512882,0.0654280657052029,-0.518447934310312,-0.745378076600268,-4.18035691286111
232,232,2.45848229079166,0.114343430021812,0.898873109007861,1.30155691624234,-0.0956280360551858,0.0198702311391156,-0.418859891103804,-0.740932972572291,-4.33111230008385
233,233,2.47090354700572,0.114050683040117,0.898813897952546,1.29322061456936,-0.104417801631539,-0.021003027931128,-0.319360257578863,-0.584512402308749,-4.19317891790807
234,234,2.48333602922479,0.113598929947492,0.898460493913842,1.2833209536173,-0.106057793734333,-0.0574317192888162,-0.268151196323199,-0.331497129980372,-4.04676059235243
235,235,2.49573749299568,0.112988872191865,0.897815790201118,1.27316733179552,-0.104640732922746,-0.0932668785068668,-0.00928426302225053,-0.0380134981182095,-3.77231233744788
236,236,2.50809742221791,0.112308717340195,0.896937934972359,1.26462568483624,-0.103432417893715,-0.127385405071579,0.31385614767219,0.224335003093937,-3.58992013998119
237,237,2.52040546940282,0.111642296127956,0.895884386261012,1.25751794069066,-0.101428150026026,-0.158348574342034,0.760486156728881,0.363672885852349,-3.46899291248271
238,238,2.53265149448348,0.111069224989911,0.89471166514767,1.24970861694546,-0.0988600857402323,-0.1848325468817,1.05132728014255,0.375430723263116,-3.29387323575849
239,239,2.54468388827578,0.110647367235117,0.893370756001838,1.23856293065585,-0.094710590119133,-0.209062354418284,1.23705989112569,0.484746679793253,-3.12939059094076
240,240,2.5565063942127,0.110315875484587,0.89182998723229,1.22443150667441,-0.0877905402105269,-0.232024558065472,1.1240248672687,0.455614844603444,-2.92937263258367
241,241,2.56834160133854,0.109976210433404,0.890163835169436,1.2123340196315,-0.0795549877013849,-0.250929090494785,1.05960365682764,0.284740261862484,-2.3492761405665
242,242,2.58041394767836,0.109533596342608,0.888436658696222,1.20599172230297,-0.0711955994834407,-0.263047111572577,0.936858389978445,0.0232553287590532,-1.65061185749214
243,243,2.59295159252191,0.108896315107728,0.886703877161693,1.20951607202721,-0.0672063092066042,-0.26586509039379,0.953187901480272,-0.316284868299925,-0.914091098011069
244,244,2.60599421789724,0.107991759615406,0.884864532003396,1.22717307677531,-0.0792632924587448,-0.256040559069892,1.2614378728142,-0.269329588346167,-0.284686774337285
245,245,2.61939105578475,0.106882293224815,0.882869768598857,1.25520953622724,-0.098968637632404,-0.237333382674576,1.58551902439409,-0.421030176704868,0.58779735127201
246,246,2.63308913486898,0.105679457954872,0.880844772888174,1.28880553744506,-0.109568626860448,-0.214525655815472,1.74906602173926,-0.777669467003642,1.64593493207897
247,247,2.64703734495765,0.104494754961763,0.878911454961429,1.32718036329195,-0.101090850888308,-0.190634164203332,2.08219171077505,-1.06495372021016,3.06416599022642
248,248,2.66118576557039,0.103440092650176,0.877190821268747,1.37147667232233,-0.0858971645489078,-0.167091791408255,2.71493626215307,-0.746782391501099,3.80645133389166
249,249,2.67537334531379,0.102501373511513,0.87567547899175,1.41341971768165,-0.0845945158937118,-0.146484368445255,3.07524814940042,0.819032455038847,3.04036423428852
250,250,2.68963708684591,0.101602503922549,0.87428208297561,1.45048348018792,-0.0879839652690779,-0.125069472925911,3.29287787293474,1.72017840359448,1.66745108263377
251,251,2.70422294668113,0.100764055971628,0.873019555779181,1.48378804102892,-0.0703728209386757,-0.102627119067116,3.72381343572229,0.750126026171353,1.24635578252929
252,252,2.71937724301053,0.100009005909615,0.871892924673136,1.51436868151203,-0.0363458837800348,-0.0805575572423703,3.81101219695639,-0.191661445983209,1.51622258058884
253,253,2.735347500685,0.0993617389246853,0.870901372464271,1.54399887983797,-0.0106766342233192,-0.060560078918116,4.09988295505743,-0.109531873453059,1.47433716856431
254,254,2.75264753079423,0.0987207133881745,0.869982118772877,1.58482742297271,-0.00250525703951182,-0.035462355579691,4.29348005787091,-0.133709716133437,1.24241597001729
255,255,2.77110978910306,0.0980696005993772,0.869141035757944,1.64966710730229,-0.00315363724367796,-0.000553302142263429,2.91995228433381,-0.937827236962804,1.37005418389358
256,256,2.78996013308383,0.097558745336407,0.868475296212848,1.71048707817927,-0.0142753181939146,0.0311007529306166,1.21464037223634,-1.4408736697892,2.38561122188363
257,257,2.80842622347079,0.0973376654239926,0.868078270113572,1.75330231525373,-0.0250862985510328,0.0533852310835334,-0.249206840382045,-2.25891671939217,3.57818708516232
258,258,2.82573835260712,0.097556336156527,0.868039900353129,1.75088231494293,-0.0331917596801779,0.0601843296118458,-0.956509999285287,-2.28112936056055,4.77305904272433
259,259,2.84166516419944,0.0984633574542004,0.868420653381613,1.72410217729336,-0.025970460880959,0.0602128787158763,-1.29334730975744,-1.26876253288232,5.67731394792232
260,260,2.85672262672769,0.0999504307937069,0.869172999509657,1.7124277777676,0.0041976506058418,0.0675533151893241,-3.63898457641095,1.57014387966168,3.3353198455481
261,261,2.87126419421843,0.101638455001817,0.870217373629352,1.68763546304012,0.0609613786656893,0.0754605352514798,-3.94544016470167,1.5072147346087,0.311644513231807
262,262,2.88564101466765,0.103154134578421,0.87146168474406,1.64284048897612,0.0904399208347445,0.0717991611591086,-3.56204969620973,0.985473767626004,-1.3248673148511
263,263,2.90019961343503,0.104129755473669,0.872801957407162,1.59527432548593,0.108645033395027,0.0679724259216518,-3.35367564748702,0.247419272984313,-1.82623991652492
264,264,2.91487520970591,0.104524726995971,0.874267065794307,1.55215812160354,0.11605368356157,0.0745174282575414,-3.07421145525292,0.216402067689691,-0.639970952240059
265,265,2.92943329042051,0.104594229989389,0.87592600208633,1.50843936874696,0.115179761242764,0.0872295457391066,-2.94358741918057,-0.465244371579206,0.368478993207592
266,266,2.94396257500618,0.104416770922594,0.877727707764942,1.46654527810966,0.0967165768360891,0.103898339937184,-2.59936372931659,0.123928583566191,1.77450309398032
267,267,2.95855196950944,0.104067312427261,0.879616591535522,1.43397774305689,0.0692770177692751,0.123101128871756,-2.01887536571442,1.36987713249246,3.27130255123053
268,268,2.97329026095193,0.103617021410071,0.881531583563278,1.41223165991761,0.0519955527038811,0.141504113055035,-2.12181908150657,0.652521132463322,3.46997342874305
269,269,2.98835375239557,0.103024074545455,0.8835526177336,1.39655283003301,0.0331374544174421,0.166395257085333,-2.00121904779789,-0.193685970226165,3.26656135770555
270,270,3.00368180781339,0.102244425589156,0.885722775162284,1.38827449926768,0.00372152381735094,0.199207169556437,-1.71616581364352,-0.72289775364432,2.68910119906975
271,271,3.01900859006201,0.101339953126852,0.887920989389618,1.3853641793208,-0.030640088294672,0.230754174896488,-1.69071188131206,-0.496649178768835,1.82075298425163
272,272,3.03406889558464,0.100368527180564,0.890023268689387,1.38398228984713,-0.0657821121330579,0.253602523395693,-1.47039887147927,-0.00526360811469869,0.823223211789303
273,273,3.04859797247604,0.0993847506838259,0.891901728156711,1.37686851373155,-0.0946759971950435,0.25900603486872,-0.716491015907767,0.739783250010138,-0.497660292201926
274,274,3.06248223642625,0.0983439758589178,0.893619858706262,1.36581255619491,-0.105529246561438,0.245338877894436,-0.253292193202478,1.11007812757347,-1.69355634117263
275,275,3.07590169637439,0.0972046745183304,0.895265566162549,1.35342668166459,-0.100880275750624,0.217920874526622,-0.0283207776682452,1.04349313886376,-2.57308500645233
276,276,3.0890326375221,0.0960251583191254,0.896743340730777,1.34320987496321,-0.0873463847654427,0.182305201362644,-0.018682245903624,0.927528257947718,-3.36143432409563
277,277,3.10205180365946,0.0948646180408899,0.897955753467968,1.33419127440131,-0.0729829934445614,0.144767013376652,0.144895319452439,0.796465620534909,-3.9015955936301
278,278,3.11513627061206,0.0937827438413234,0.898803237434169,1.33263384737822,-0.0589415557293678,0.11044548749859,-0.361509856019172,0.648362083331708,-4.12757917071674
279,279,3.12831651539063,0.0927477436721448,0.899243298518476,1.34058068474008,-0.0433442315064463,0.0771084711698344,-0.752678778288905,0.899758031325142,-3.86780421256374
280,280,3.14147905704758,0.0917184752707875,0.899345982802325,1.35395836878533,-0.0297829265477413,0.0404450541922766,-0.910466871262956,1.00837731802669,-3.96202232235406
281,281,3.15458419003891,0.0907415607510698,0.899176788906399,1.36367315845166,-0.0202318871466801,0.0026902718112944,-0.383789241716395,1.06854642655116,-3.74386499505779
282,282,3.16759113776428,0.089864420873337,0.898798283520075,1.36385634622317,-0.0156429144362004,-0.0348158065247336,0.16876213396704,0.931493587022858,-3.35772704582957
283,283,3.18045819242869,0.089134621915266,0.89827015832328,1.35252049840524,-0.0179150815610664,-0.070019719491986,0.539928941707083,0.445791526896031,-2.88169137384908
284,284,3.19311763008432,0.0886226454376761,0.89755493348941,1.33389029712544,-0.0259006995176874,-0.102562073054959,0.535529158525845,0.431447273589972,-2.80691695666582
285,285,3.20559681563379,0.088294137903638,0.896615700392691,1.31206770955934,-0.0311980794918076,-0.131691486595448,0.375298092976468,-0.146020174419244,-2.82019970910677
286,286,3.21799450708427,0.0880415433456872,0.895508345056211,1.29029137273169,-0.032519763083689,-0.155881275954582,0.355960630406814,-0.589641821899443,-2.95685029602111
287,287,3.23040826196383,0.0877616166996143,0.894284080453958,1.27265357990952,-0.0311202827257325,-0.175445269697569,0.390765279484826,-0.734826233261036,-2.8005766731629
288,288,3.24293573997489,0.0873558318468047,0.892989127406214,1.26308637419416,-0.0293639120133061,-0.19056233096236,0.374306901430615,-0.532376822097455,-2.68966315003496
289,289,3.25542053707711,0.0867882111081502,0.891523761368736,1.25809194580373,-0.0311279555667001,-0.202838700765824,0.731241986492185,-0.217760313153871,-2.37750036523513
290,290,3.26779439072155,0.086133473458116,0.889856707551806,1.2514978434742,-0.0408343939420662,-0.214020879371811,1.0782511386857,-0.264581838559656,-1.57992420063923
291,291,3.28028875225173,0.0854587284354401,0.888126014237047,1.24653653923969,-0.0501817033842194,-0.221745278229074,1.7058493800344,-0.432184132784638,-0.965903003979092
292,292,3.29313614644564,0.0848252218450829,0.886459392778421,1.24436074420885,-0.0594623202815957,-0.225113155623141,2.0904248831803,-0.376305631215034,-0.180321003724901
293,293,3.30657114583085,0.0842888145098645,0.884976673499528,1.25288851689522,-0.0695680856822538,-0.221246514867377,2.06602954713523,-0.0109032400105906,0.657622213507568
294,294,3.32060662087927,0.0839040618223102,0.88366912809848,1.27516325957841,-0.0792496847724976,-0.204960682599095,1.88373561883247,0.396688982978395,1.68766639297611
295,295,3.3350918123672,0.0836293776561098,0.882443702997816,1.30923921838532,-0.0929314110810636,-0.177709570067897,2.54747477264046,0.38977652681561,2.34575851907274
296,296,3.35001751838673,0.0833761587944956,0.88129097846302,1.35083096719435,-0.103505968662694,-0.146375844980517,2.97315422538841,-0.381811737307687,2.43170164561652
297,297,3.36537249339368,0.0830581984126276,0.880200839729894,1.40163356926447,-0.113207954038487,-0.115610221584796,2.99237226257897,-0.51843228243052,2.38232725333742
298,298,3.38114275861551,0.0825902103028834,0.879162677326922,1.45414847957745,-0.114601964348239,-0.0914667655528806,3.28124675401408,-1.49527429291862,1.94894125881674
299,299,3.39752766494203,0.0820073080371933,0.878193190619709,1.51185693266855,-0.107119613815303,-0.0789899247150515,3.54561599321616,-2.07168689540481,1.28100070032054
300,300,3.41453682945343,0.0813663455902451,0.877305208006946,1.57667621014433,-0.104283438138258,-0.0744682503465838,3.55901741618952,-1.75754097374895,0.271513489301985
301,301,3.43186820786729,0.0806141957211642,0.876480437887389,1.63571964471472,-0.11088272839429,-0.0740545308412962,3.48811989003081,-1.26030161758966,0.210079970635162
302,302,3.44921923071809,0.0796994306281617,0.875693817688097,1.68121536090378,-0.113383046947956,-0.0727413407240753,3.03772853183211,-0.794813788655286,0.100789130255212
303,303,3.46628688346411,0.0785741617082916,0.87491217702086,1.72099382356424,-0.125901559450286,-0.0614004551900761,1.4258041020079,1.06768484740635,0.807369926285691
304,304,3.48335208605833,0.0771755546597008,0.874068669906362,1.7364519029445,-0.144276847042355,-0.0448843862426168,0.741535356802079,3.21831469928162,2.60565428127531
305,305,3.50060951394465,0.0755459151312965,0.873190873213683,1.69718890218694,-0.180238013373014,-0.0338787751401619,0.88220833484225,4.99491531260147,5.24916291065523
306,306,3.51763049415285,0.0737931465791904,0.872380679107635,1.6564379802746,-0.186222622323812,-0.0195069035319682,-0.111117177902574,1.62112322070772,6.45087893268292
307,307,3.53399285179576,0.0720154989438816,0.871734682773744,1.6773225120589,-0.171823084555485,0.0133957243439937,-3.0399130032713,-2.77041242257507,2.0339872689103
308,308,3.54927869004931,0.070300973810516,0.871343201849488,1.71719658306685,-0.192383174481441,0.0490619351744223,-4.86313887148498,-0.350379906743967,-0.395911451059503
309,309,3.56295614713841,0.0686161470848944,0.871130176771977,1.70555951422098,-0.214551857528125,0.0699677488191443,-4.7989319976783,0.417390942492606,0.0350029244300242
310,310,3.57530800100053,0.066894436309295,0.871042083785773,1.65662496552721,-0.226082536334939,0.0738973636586011,-4.07702331737657,-0.227654094524618,-0.0626768914487942
311,311,3.58713857427292,0.0651708366092332,0.871193629524433,1.58627659006918,-0.221089991936123,0.0707815117797053,-3.11331380269823,-0.762010190249449,0.924049348598426
312,312,3.59925266371785,0.0634846823684773,0.871688858917804,1.50987278187828,-0.2116074448198,0.0706164572495483,-3.05025837460601,-0.23065448284129,2.19786980717547
313,313,3.61245547531966,0.0618769012114451,0.872622705659348,1.43948265771689,-0.207023750720145,0.0766397283768198,-2.27058898100999,-0.129364989945147,3.64362907696807
314,314,3.62706180586878,0.0602286928152268,0.874150402924732,1.39833764758346,-0.188893213394294,0.10002210481634,-1.38533723685423,-0.959501272996366,4.15105675485909
315,315,3.64253188670236,0.0585060780289365,0.876205735524383,1.39006288492227,-0.156481214134765,0.136278547255123,-1.23728952275222,-1.03884579823794,3.18377213450566
316,316,3.65838794473244,0.0568783188884826,0.878549090394971,1.39567327867527,-0.129318768817523,0.176169917972815,-1.25825067282228,-0.268120827249149,2.58772788000197
317,317,3.67415355122642,0.0555212006572991,0.880938283978411,1.40054496912134,-0.112975585996696,0.214191782605026,-1.21147681442627,0.678428577053267,2.37103051574136
318,318,3.68935470812567,0.0546182275043606,0.883126510606178,1.39996517651714,-0.104845490090073,0.240341232716999,-1.53271355443704,0.833266028867746,2.08470487178353
319,319,3.70399899853926,0.0543958987650007,0.885196435046881,1.39370291778649,-0.102265201971658,0.25289473205531,-1.75150779252591,0.451436635334711,1.23051971227843
320,320,3.71840341160287,0.054730212240232,0.887317523049002,1.38657799027427,-0.0992316194307949,0.258379371570787,-1.59264744991593,-0.292625607223441,0.469902493355844
321,321,3.73256100369557,0.0552872337876502,0.889367675523857,1.37818978307094,-0.0922139096555026,0.255981067844015,-1.27582779282204,-1.21044757081393,-0.339096240403506
322,322,3.74646500865719,0.0557375606988054,0.8912214129052,1.36932378524071,-0.0852841865776585,0.246085716210191,-1.08058343797191,-1.73544638479928,-1.40233628751003
323,323,3.76010820847364,0.0557564929766794,0.892749494783065,1.36161876281809,-0.0861056697077701,0.228986203452671,-0.954912573072434,-1.61118615311388,-2.31846883177261
324,324,3.7734029474137,0.0552581231881694,0.89394639998282,1.35448502274287,-0.0992618169552978,0.201415579232193,-0.839628861651121,-1.12866189441877,-2.87407193240232
325,325,3.78635785182646,0.0544665045968874,0.894900261522815,1.34704667937891,-0.120236937950263,0.163345409719914,-0.829034970313989,-0.951343765231801,-3.46682987930345
326,326,3.79910955107268,0.0535236355243987,0.895618412091357,1.33839123234787,-0.142848706859295,0.119929646225416,-0.901090450076121,-0.957017220369857,-3.88810805603324
327,327,3.81179440163825,0.0525699489317304,0.896106178790339,1.32949954938688,-0.161516583570725,0.0757764657541939,-0.908416216021561,-0.96767730582872,-4.14957467814831
328,328,3.82454839026268,0.0517448016418451,0.896366612955275,1.32126450404355,-0.174454252601287,0.0361355978363442,-0.883172081753283,-0.749620409634171,-4.22070458260878
329,329,3.83739295664826,0.0510866506331342,0.896376424305535,1.31533197820159,-0.177819961805185,-0.00011192687425663,-0.781503511852546,-0.426244764929202,-4.22907165829535
330,330,3.85023885602855,0.0505088164595486,0.89613477144323,1.31001794779919,-0.171853523442489,-0.0367219576946435,-0.494543228956027,-0.120606359713363,-3.96197356264295
331,331,3.86305572392868,0.0499578082535816,0.895676460216464,1.30339461220982,-0.157233828837279,-0.0735666787436023,-0.186091012342182,0.181502917686544,-3.65207951963295
332,332,3.87581348816989,0.049374197433102,0.895035793500592,1.29383889005608,-0.140712950178745,-0.109148910751529,0.264141894210002,0.509179553069742,-3.300821183103
333,333,3.88848235113934,0.0486931746921508,0.894246528584332,1.28366954386717,-0.129463445300923,-0.14096850571055,0.51100216799037,1.02622723917169,-3.04454535520978
334,334,3.90097033418275,0.0478941475203651,0.893264369527869,1.27166769812725,-0.123253975291523,-0.168426090074509,0.625496153092804,1.21190641080373,-3.09201226309698
335,335,3.91329617449467,0.0470146174019575,0.892072240802649,1.25662400430421,-0.118456886568269,-0.191905269748912,0.808789258268673,1.10456507837472,-2.93167580482974
336,336,3.92559491967783,0.0460733243982844,0.890740124918611,1.24302769715143,-0.112161881663572,-0.211090398756147,0.840269927752912,0.897949756369467,-2.70954018797484
337,337,3.9380011970406,0.0450880409107743,0.88933189577737,1.2326732521826,-0.104799038615969,-0.225590734844883,0.781866513667365,0.443575626370036,-2.30543441412086
338,338,3.95065071770204,0.044075062690479,0.887905503478479,1.23002762457839,-0.0998570392307749,-0.234263945265228,0.642175125686644,-0.110070178597459,-1.46931315417877
339,339,3.96346895051995,0.0430468923452764,0.886380512409278,1.23220943210815,-0.102270685374054,-0.236689211845547,0.919638841685225,-0.479994352701226,-0.753706662793291
340,340,3.97636233703905,0.0419842894420577,0.884717595050592,1.23601638408181,-0.108363162547208,-0.234132046371815,1.32309259610717,-0.750805354344756,-0.23953943751407
341,341,3.9894419935801,0.0408589165945315,0.883022430555108,1.24310921900084,-0.117572543648372,-0.227509124212197,1.52661322249785,-0.829913914400204,0.162923381449798
342,342,4.00282247751819,0.039648811219122,0.881387619078837,1.25850668217891,-0.129154897053339,-0.217269436107356,1.17005348570329,-1.01135459382778,0.440529687219593
343,343,4.01662176554458,0.0383373837262175,0.879897084959447,1.28232252698023,-0.123166649454177,-0.20585934965844,1.53987281790991,-0.724925169199892,1.50741849663554
344,344,4.03079891529369,0.0368822138787659,0.878559251010191,1.3209593746301,-0.075139048035261,-0.189317851770889,2.74115115217231,-0.982754738386632,3.57202335728598
345,345,4.04528265346792,0.0352974417378221,0.877304813710362,1.37195354593359,-0.0359430516108258,-0.163889741417974,3.19340901821792,0.0898375235316378,4.17000866677107
346,346,4.06014529084427,0.0336537014354623,0.87610285516628,1.42452757264652,-0.0474899106694005,-0.133608346251145,3.3112105965148,2.41576544154095,1.98724097997623
347,347,4.075457261049,0.0320228957978939,0.874922498356603,1.47659340034592,-0.0585454931271736,-0.103132987944195,3.43248032863997,2.06898397182538,0.533586195068861
348,348,4.09128823031003,0.0304786066632308,0.873729945744932,1.52794114961376,-0.0459610659080081,-0.0753481337604901,3.533766164587,0.372676773102232,0.831752680146199
349,349,4.10792739936254,0.0288282562660198,0.872334270218464,1.58109319617391,-0.0422748192890292,-0.0510859809941832,4.06976914449275,0.242587641202735,1.03650605871336
350,350,4.12532948619207,0.0270252544952802,0.870766170046918,1.6387040493799,-0.0527015352716151,-0.0279667951135254,4.7275944050278,0.239481756563293,1.13966009380241
351,351,4.14305957459003,0.0253608993206018,0.869318632858038,1.69104839008791,-0.0674136239691942,-0.00584022921780583,3.84965636260824,-0.863925645193316,1.57083631207778
352,352,4.16067931700995,0.0241231377572419,0.868279351506507,1.72816020596414,-0.0863333709064155,0.011179336126288,2.29289938014902,-1.36844584837254,2.54445928330683
353,353,4.17774806262512,0.0235967854596954,0.867931173378098,1.73710840087966,-0.0938881078524594,0.0222506486390573,0.203793046105734,-2.06160814265825,3.82453607028325
354,354,4.1943581413676,0.0240829931883712,0.868495198822627,1.70424662745483,-0.0848967506353562,0.0267401856643328,-0.815748126466865,-1.93697560056642,4.56312356815882
355,355,4.21080111122997,0.0253778574972674,0.869791497339531,1.66694868320587,-0.0627632942140965,0.0352852465227678,-1.41565811785195,-1.05145564443966,4.80776632178273
356,356,4.22693760160942,0.0270140487419859,0.871495156521121,1.66510574845914,-0.0174939568039366,0.0602196974669838,-2.9232261223698,0.904766267244823,3.79637200241203
357,357,4.24262723824212,0.0285351361440986,0.873272750134673,1.68080611491418,0.0579359569945968,0.0931811672277329,-3.79499383974234,1.16282936762878,1.67405024586226
358,358,4.25772469534704,0.0294951904170535,0.87478170908672,1.67404044118929,0.0873699140552171,0.105137675967207,-3.31501260889478,1.04863442935752,-1.35221964190645
359,359,4.27184042863194,0.0298438178510015,0.875923879408247,1.64109157857109,0.0980049390113161,0.107307333686805,-3.53427185222565,0.00641785301957946,-2.49266150237646
360,360,4.28507016159873,0.0298879350144824,0.876928985497779,1.58321602523133,0.104150061758443,0.100703861600553,-2.79971798984937,0.217455029363053,-0.970096006846487
361,361,4.29799248639048,0.029723206576553,0.877938343317945,1.5150035709222,0.102398838821614,0.0913362044932707,-2.96070454802219,-0.198469564609064,0.0733846551477114
362,362,4.31118562132463,0.0294446370777739,0.879088144784917,1.44690616335347,0.083165584920086,0.0844407447640012,-2.59526788854922,0.104746240414368,1.38771071291827
363,363,4.32522677212057,0.0291473439136503,0.880510059892241,1.40096168368577,0.052277328122698,0.089137683325802,-1.78135923539966,1.43325904854909,3.02571681023253
364,364,4.34045793233827,0.0288724060113956,0.882333134491899,1.38309308070738,0.0195616018711178,0.110233282584097,-1.96074648840404,0.963524743333305,2.94104369471521
365,365,4.35649104928941,0.0285677695380704,0.884473090743975,1.38344480402852,-0.0154105075325971,0.148346003612726,-1.77036214715879,0.081896390319734,2.96741317625555
366,366,4.37280795939748,0.0281828080392826,0.886738480128032,1.3964117468747,-0.0524925907161053,0.192578086230934,-1.66137198465637,-0.131547451251054,2.94451027520309
367,367,4.3888916749428,0.0276576173275468,0.888932825688862,1.41434420251571,-0.0865172593545669,0.230312202304451,-1.6420688114876,-0.0722450115672773,2.30136530833355
368,368,4.40422633922938,0.0269235496851453,0.890852904644458,1.42636351131694,-0.107698373624639,0.250195969411889,-1.63973154216044,0.0988770974200718,1.36126468795089
369,369,4.41871285437155,0.0258850469078631,0.892537193828567,1.42581244584298,-0.117256288481823,0.25010041314518,-0.857206295947359,0.640261712527497,0.210168935640165
370,370,4.43269779315409,0.02457892360774,0.894122470010899,1.41604802107344,-0.114364270583977,0.236839061969121,-0.0534274102873084,1.07437187970058,-1.18771772456094
371,371,4.446335131644,0.023131014823052,0.895547545865596,1.40155913536686,-0.100421344429369,0.214673910068376,0.240078161304733,1.16079589160451,-2.3173381728591
372,372,4.45977938378888,0.0216689001502284,0.896750069441058,1.38895219254918,-0.0815544106517827,0.187198975373626,0.121641012238021,0.984818635952883,-3.16052168313621
373,373,4.47318548055461,0.020321664222133,0.897666264848826,1.37897352898727,-0.0646451801043694,0.157787745009261,0.0704669876595346,0.98269044354074,-3.65456606953095
374,374,4.48655057389603,0.0190216023841424,0.898292125085141,1.37478290153072,-0.0502363730341742,0.122701488833394,-0.304759866061809,0.851023355062622,-3.96271567889637
375,375,4.49977639322421,0.0176811342756868,0.89867467960758,1.37359506582731,-0.0364821554481418,0.0791366510715567,-0.497358767404075,1.18989068982295,-4.2732811755829
376,376,4.51287415299335,0.0164008864533984,0.898823058040147,1.37296031316083,-0.0236555028400217,0.0319664088632672,-0.523307030999889,1.35739041959384,-4.33204437223281
377,377,4.52585422313067,0.0152816811964038,0.898742787380374,1.37030367292369,-0.0143655611148786,-0.0142282956468994,-0.401104581868365,1.29101148605977,-4.22724119221038
378,378,4.53872627584059,0.0144237478919038,0.898435819523704,1.36233968337207,-0.0114113092296922,-0.0548815723492424,-0.211087345804693,1.17679257565844,-4.06831374937097
379,379,4.55144306334108,0.0139031869044285,0.897871452967054,1.34764554362533,-0.0128999888526833,-0.0904572298799605,0.303379107260448,0.964337802568679,-3.67317053923988
380,380,4.56399934590377,0.0136497212728126,0.897049215311232,1.33107438336878,-0.0142000707044194,-0.123701311087561,0.448072066768326,0.246288132131306,-3.48008849779294
381,381,4.57646618612183,0.0135461200536635,0.896013330217296,1.31586949642792,-0.012944455921272,-0.153400207429036,0.608271864705598,-0.341603657632534,-3.3730990756565
382,382,4.58891353703066,0.0134794430771061,0.894806467416226,1.30268323741738,-0.0110602782615224,-0.179291198675488,0.547249272729314,-0.515213432797716,-3.08098214846466
383,383,4.60141078948941,0.0133411386112642,0.893469235011108,1.29224453113781,-0.00746509575284339,-0.201284272836575,0.529569985795208,-0.670348561467825,-2.74400930458238
384,384,4.61377272820156,0.0131040050159415,0.891918983677371,1.28150023607168,-0.003261718761757,-0.221782594375194,0.786660410207646,-0.656298718424913,-2.5716400736758
385,385,4.62594929787711,0.0128482930930178,0.890132772825457,1.26993960027966,-1.6313499847492e-05,-0.240773357347185,1.04478584571003,-0.299512733044828,-2.38981797513035
386,386,4.63821247850289,0.0126269392419994,0.888232068916614,1.25976938355985,0.000892540883969627,-0.255406159116081,1.09047330280599,-0.174881321555763,-2.14201617239907
387,387,4.65083567686668,0.0124884121320282,0.886328665053407,1.25248153828086,0.000283558182325883,-0.2639183452115,1.52521156563587,0.192905129897286,-1.34557377205669
388,388,4.66409533593868,0.0124770907186265,0.884526088038862,1.25388087322415,-0.000273969368547965,-0.263420176899955,2.30537029349341,0.341189822249012,-0.244613694199611
389,389,4.67800501431905,0.0126733409256428,0.882734953842099,1.26942223750645,0.00581031622780165,-0.249411897578091,2.67545041814615,0.00559091057317073,0.793407743381152
390,390,4.69238200603373,0.0130442684706792,0.880875009902371,1.29852812637995,0.0136069429957134,-0.223374611550743,2.67906572704165,-0.0260697012507148,1.73922475399951
391,391,4.7072128301327,0.0134643818488937,0.879055336068541,1.34051854105172,0.010144591876894,-0.191208691695859,2.58958627011001,0.749701250745607,2.56656278088119
392,392,4.72248591931423,0.013810497444026,0.877381096087514,1.39116391571951,-0.00667960149305643,-0.159623197341304,3.00641187532133,1.27645752609253,3.08142641961052
393,393,4.73819057448072,0.0139607589281434,0.875955982226804,1.44384327178597,-0.0222502311724692,-0.135406453810282,3.46438027861386,0.47703010522058,3.02499598626127
394,394,4.75436559627054,0.0139108283903186,0.874828673987751,1.50157762458493,-0.0352504001486421,-0.120654212232014,3.96082174577438,-0.823735134516621,2.43037525178093
395,395,4.771022130899,0.0137443952344416,0.873928691861934,1.56648103844301,-0.0508135763003467,-0.110214816658878,4.20644893476416,-1.46869536627148,1.58602364153701
396,396,4.78810525146808,0.0134698855358838,0.873181996105465,1.63554959290957,-0.0686001170655303,-0.0995152238824945,3.93610509201183,-1.48534692035849,0.780474282169904
397,397,4.80555956342859,0.0130931497821828,0.872509902754883,1.69980507327373,-0.0902009838497142,-0.0866743740714549,3.70770575837987,-1.27998115815412,0.184066933179578
398,398,4.82333046490008,0.0126196423629323,0.871827440279314,1.74858158601747,-0.104321166389914,-0.0681647417378561,4.03502354155002,-0.643813256854695,0.239024084905502
399,399,4.84198219491968,0.0121001098125157,0.871097180547598,1.80060476927053,-0.113988365142493,-0.0320279357733899,2.65584469390355,0.836612248656058,0.554059474790823
400,400,4.86154641097281,0.0115352021373057,0.870386146652251,1.85566608320301,-0.112043704540775,0.015064461503231,1.07111574283051,2.46943268556558,2.32961715544129
401,401,4.88117218177357,0.0108560493783341,0.869759146121787,1.87008461456885,-0.102191041006249,0.0516152838484639,0.781360036156592,4.53502267566273,4.03631897851738
402,402,4.90001301831965,0.00998813482217366,0.869272994664611,1.84227212964269,-0.10969085744694,0.0731767444230679,0.377796646049233,4.65883378175654,8.06262313001385
403,403,4.91722576778075,0.0088499659847285,0.86897561925595,1.84454506345097,-0.0774731377680489,0.0903458640722045,-2.45599775653218,-1.57986677877684,4.82535834575154
404,404,4.93220503315584,0.00729033690778466,0.868778071617815,1.86440734262131,-0.0850602687233249,0.0987732278475514,-5.43214412955029,-2.21010881082138,0.66075512575815
405,405,4.9455156865911,0.00536527352655714,0.86865656431674,1.82761088306724,-0.116299898881613,0.0912084133135059,-5.90011980467742,-0.64374341879699,0.117409064608292
406,406,4.95807064283577,0.00329862540458236,0.868744619598558,1.74869902086522,-0.146823330879883,0.0709421882859527,-4.95057902024456,-0.777912649531923,0.179672128347741
407,407,4.97078297416794,0.00131228491011262,0.869162898558477,1.65817130398753,-0.169343485481981,0.0495936473437106,-3.92569098192029,-0.433539393892306,0.0643685481911261
408,408,4.98456512663826,-0.00037539859889759,0.870020692253829,1.58444909778035,-0.169123968404754,0.0447118366209268,-3.45696313863294,-0.893080416459247,1.21188677696491
409,409,4.99961671287025,-0.00186525875674257,0.871415615877615,1.52713927951199,-0.159904403688906,0.0628642635205494,-2.38617053099496,-0.573745165080213,2.94705336004545
410,410,5.01532663307365,-0.00331112139268728,0.87327097705409,1.48655315289055,-0.145934861965712,0.0992121206082464,-1.10433675382079,-0.908800573158642,4.09612049053456
411,411,5.03138935790788,-0.00457619708754724,0.875430734789699,1.47693892364871,-0.12332458103716,0.143270466167796,-1.44112411302148,-1.03952945299193,3.42686789092527
412,412,5.04749938707054,-0.00551924018236333,0.877736036655808,1.4798601935634,-0.102299214974684,0.185375409911011,-1.22174426924413,-0.402558315152176,3.3339709582089
413,413,5.06335211458833,-0.00599486869567326,0.880023631245817,1.47775925551745,-0.0881305987082441,0.217280512209072,-1.39667316206408,0.767245972553561,2.65778058922128
414,414,5.07905714739956,-0.00578870987217505,0.882440311680487,1.47177349033795,-0.074198176985282,0.23896263509293,-1.1571496686548,1.25003334326079,2.38931225013534
415,415,5.09481666383429,-0.00500796940505324,0.885101356536131,1.47017487396097,-0.0555011905695161,0.256664379272353,-1.46702214007842,0.981203121914728,1.5700771055215
416,416,5.11046780033644,-0.00398157323068648,0.887790508790558,1.46997900921257,-0.0350142819676747,0.268626755795382,-1.44268922691907,0.411197034005181,0.392714584866634
417,417,5.12584869933593,-0.00302838367029585,0.890286418294242,1.46943754848532,-0.0110411427128156,0.271955084447675,-0.980606404075903,-0.81727857384078,-0.785164716161014
418,418,5.14079722182919,-0.00245642541443795,0.892361778847425,1.46759246465697,0.00591390695180304,0.264232281867787,-0.872494421803447,-1.75792258234307,-1.97073781219905
419,419,5.1552007115098,-0.00229493598449229,0.894019832383872,1.46352700699522,0.00275883016318567,0.242564704308468,-0.738670866265162,-1.7621198279409,-2.89862627153237
420,420,5.16917144708957,-0.00232774080535612,0.895413334198292,1.45601770358391,-0.0197131227424957,0.209259240249539,-0.437708309617831,-1.29621910465359,-3.20978202386878
421,421,5.18288381741868,-0.00248874348841587,0.896534101672167,1.44802199497803,-0.0530331732981381,0.168589753761787,-0.464523689151353,-0.932119858918334,-3.82591733538241
422,422,5.19651214035446,-0.00271393333696823,0.897372138896577,1.43841496729543,-0.0834874522694658,0.126023965495385,-0.450699142818016,-0.87248406036278,-4.08070646738435
423,423,5.21023061339552,-0.00294108578711191,0.897915183885032,1.4273308325377,-0.103810661812527,0.0857662051520397,-0.469555226235281,-1.10812893360569,-4.15495935397953
424,424,5.22407286901831,-0.00316701142551899,0.898120514603739,1.41865541162495,-0.113391833075756,0.0468140258604181,-0.452003523023707,-0.959191937883261,-4.53191690534272
425,425,5.2379244113486,-0.00342583570917906,0.89799751012349,1.41210787537533,-0.117415872884572,0.00581611827550396,-0.432955848723615,-0.672629202364344,-4.36244922758227
426,426,5.25173704242214,-0.00371682168289953,0.897609584115984,1.40475105316877,-0.117303910749291,-0.0353764651167176,-0.122984128504157,-0.299001285160309,-4.06501998575694
427,427,5.26546277023566,-0.00404496988794865,0.897019172940044,1.39722446631177,-0.11104862685959,-0.0752813953416948,0.0594327463592441,0.0928874117409159,-3.77876642603794
428,428,5.27905387040773,-0.00442041235967077,0.896287869091319,1.38767853065229,-0.102455166689245,-0.11192668940193,0.325890567294442,0.220267196930598,-3.39548169696912
429,429,5.29238939156382,-0.00487914294834543,0.895388269579248,1.37614809329217,-0.0917292862023117,-0.144888602353497,0.557723531691872,0.307652136985706,-3.44742609082627
430,430,5.30550036527478,-0.00541958754907671,0.894283051081719,1.3603311268839,-0.0793733985877243,-0.174613608656781,0.930491371082754,0.489125475356075,-3.13159568749249
431,431,5.31856604784368,-0.00599896801007848,0.893015325821332,1.34540719982694,-0.0709275114792667,-0.199258413175605,1.06838779857714,0.591117948804537,-3.0360402014276
432,432,5.33176526600208,-0.00657521566147909,0.891623423755446,1.33466181505503,-0.0663086608682285,-0.218246940668769,1.00665592752897,0.531268752089601,-2.66101420983024
433,433,5.34527763952035,-0.00710738701810659,0.890140839941034,1.33013948071873,-0.0643924474345206,-0.231286519686665,0.976295680530343,0.465487567812093,-2.06971609949042
434,434,5.359024373134,-0.00754191806869421,0.888472024777456,1.33106546517401,-0.0657701245384156,-0.238787470697593,0.9286851967088,0.187794523031074,-1.49075980119097
435,435,5.37288236848032,-0.00791357225206786,0.886595417520857,1.33596397836921,-0.0667106143007793,-0.24207051036772,0.957773933397836,-0.414435418432097,-0.878000258123607
436,436,5.38696807652895,-0.00831173222197863,0.884642143716498,1.34523654166829,-0.0678488026432416,-0.241439763115788,1.24205972918937,-0.606769233965512,-0.339605596996057
437,437,5.40140152744316,-0.00882090348516049,0.88273016383515,1.35893839813369,-0.0709523095937408,-0.237376764422442,1.45978571977888,-0.463410636404538,0.274045504431948
438,438,5.41630667660144,-0.00952127516117443,0.880968316286513,1.38028672994512,-0.0625276202493082,-0.229779818964976,1.53077206878797,-0.350106654740546,1.07029888662268
439,439,5.43169536616319,-0.0105129157670829,0.879366481866977,1.41491616212002,-0.0204284454889763,-0.215844580291987,2.49569376881738,-0.837591764657278,2.90100034895232
440,440,5.44749233139314,-0.0117405773316671,0.877837302497899,1.46178728167404,0.0168898733460612,-0.189397773345873,3.79700708667396,0.0212016294230766,4.23601014476469
441,441,5.46369124138946,-0.0130485140039016,0.876344144402187,1.51507731142465,0.0206980262345012,-0.15822150898224,4.06717135976304,1.64232966334976,3.0623261996617
442,442,5.4802836915054,-0.0142796108219747,0.87485134474018,1.57274795787759,0.00483004973164077,-0.126426602571542,3.56364778589407,2.28880404635893,0.89484506568883
443,443,5.49726014438785,-0.0152755411934801,0.873322272475202,1.62778243603769,0.0106608504638161,-0.101098483668258,3.60347847160923,0.860738795706659,0.592810751296442
444,444,5.5148709824787,-0.016187595745757,0.871528863756427,1.68395449828336,0.0212782566317101,-0.0849539245761853,4.31057014472659,-0.0248858137400419,0.645301394730489
445,445,5.53312383022267,-0.0171194859209299,0.86950472671259,1.74147211126445,0.0190205704469671,-0.0763293513605648,4.98396081200242,0.234010309169914,0.590996376098989
446,446,5.55164194091953,-0.0178423539054281,0.867601007894961,1.79033419527653,0.00914567783735638,-0.0701840010302096,4.34928700211157,0.196180122864513,0.674878068105889
447,447,5.57004497770858,-0.0181290776315564,0.86616201235441,1.83445417903996,-0.00194588144393424,-0.0600000310386393,2.28558009762665,-0.585013582702845,0.990542295657257
448,448,5.58795021562573,-0.0177543307510808,0.865525012769485,1.85468024546643,-0.00116104656889064,-0.0480552409203577,-0.986347121920682,-2.12114516610493,2.4717580452096
449,449,5.60550663961618,-0.0164201296460639,0.865948166320716,1.82161432611468,0.0236592246314191,-0.0381661612829986,-2.68730056447997,-3.83750270568207,3.71081153786019
450,450,5.62296730569583,-0.0142900535255556,0.86721297488145,1.75255001706843,0.0551654329091023,-0.0251523205715042,-2.859190550472,-2.91116853195449,5.98633861983796
451,451,5.64010831018552,-0.011825407238306,0.86893447242589,1.71772407923954,0.0873187636246574,0.00919791285264471,-2.6743312719733,1.03525569744643,6.60760438103316
452,452,5.65670482125929,-0.00947614001638201,0.870720500419514,1.7341535506821,0.155678918454095,0.0624565954301548,-4.40790421393738,1.99359415440895,3.55062889684473
453,453,5.67252697849631,-0.00768108717187282,0.872171204501043,1.72868630741986,0.179996450435808,0.0963860071535352,-3.16351040222884,2.23137148230889,-0.246639110942569
454,454,5.68708736010015,-0.00640816729530388,0.873146052931084,1.69915085574428,0.181098621813397,0.110797491345018,-4.02803655097828,0.859377540091115,-1.17101446881676
455,455,5.7005392585147,-0.00535498965424686,0.87391372972884,1.63979829603944,0.186443533769413,0.110218691211557,-3.48438088919036,-0.735411738608429,-0.505767743696527
456,456,5.71360919384225,-0.00455012983515848,0.874681078886013,1.56869662198788,0.171790519861353,0.103093084801608,-3.12963455643789,-0.7500209352586,0.175247996574247
457,457,5.72702212750992,-0.00402397743584892,0.875649377248053,1.49875810522439,0.136443408368502,0.0992929535503919,-2.36340087599239,0.0725640844815316,1.88041925308733
458,458,5.74150079803488,-0.00380748924812231,0.877015056592075,1.45224488102955,0.0969710861500901,0.104208945086655,-1.74581389758833,1.42255540678679,3.51350581428625
459,459,5.75750633181501,-0.00400777280791828,0.878951197399163,1.43054333388879,0.0589368482243925,0.125113362254012,-2.13309048828972,1.14467005010446,3.36847545392584
460,460,5.7745521721766,-0.00459560519025522,0.881330656387291,1.42488884712851,0.0184766417177412,0.161713030978892,-2.03956220234428,0.408847330660323,3.22889228488904
461,461,5.79193910085811,-0.00540231257950234,0.883896529957079,1.43550650150668,-0.0163931380004675,0.203723869620345,-2.14603370836416,-0.0152550501983443,2.66745752165988
462,462,5.80896988718492,-0.00626660301602914,0.886386690754839,1.45502462273481,-0.0460902513515778,0.239979893903371,-2.47485040905553,0.0331408785924612,1.67953074241521
463,463,5.82494896959587,-0.00703433662583624,0.888531944054903,1.46764327083308,-0.0688402409832522,0.259061213985187,-2.35005716449641,0.397068102252889,0.652349698692727
464,464,5.83969196248846,-0.00770870335012668,0.890345766869301,1.4680052720193,-0.0792503726894938,0.258189636023708,-1.32890946804603,1.13202265762784,-0.323112741570209
465,465,5.85366560579842,-0.00839810074907018,0.89200987926377,1.45635389791706,-0.0771495323237994,0.243028657718596,-0.498439340782624,1.44225316388703,-1.36607338663415
466,466,5.86715228053085,-0.00910989596183113,0.89350144068808,1.43967774060149,-0.0602035722485096,0.219126221400502,-0.252288801384056,1.13532105905926,-2.37040395332638
467,467,5.88043484539167,-0.0098504732448053,0.89479557448176,1.4232311376487,-0.0373316231677989,0.191328865501903,-0.327929131467667,1.05016847764854,-3.15934284551709
468,468,5.89379661304577,-0.0106257949556454,0.89586501835219,1.409323960757,-0.0174169326297836,0.163506393716604,-0.269441813718958,1.03586998840785,-3.53645214376804
469,469,5.90725848141101,-0.0115354036564366,0.896725402196608,1.39732984790765,-0.00587456283743398,0.133804100563836,0.32624439641093,0.802319592675978,-3.26496261733574
470,470,5.92063633392596,-0.0125770463479852,0.897397993643986,1.38948077303524,0.00349003707538536,0.0985240823780666,0.0311769237441217,1.17188274466066,-3.52039823381279
471,471,5.93390547377341,-0.0136037331203952,0.897860445730701,1.38392975569802,0.0112574720938567,0.0607004093996395,-0.617470148835799,1.02283959142259,-4.04237301489829
472,472,5.94704043580306,-0.0144680724904387,0.89808789567901,1.37644800633581,0.016330935695999,0.0232616528632499,-0.118305293885873,0.779451901462749,-3.76880373319757
473,473,5.96001511068405,-0.0150227926558032,0.898052961773901,1.36653634020013,0.016191537032393,-0.0119059518268999,-0.0691941474887418,0.668790019227807,-3.55019426884761
474,474,5.97275103444095,-0.015170125233417,0.897713457053281,1.35330529562157,0.00991336624906986,-0.0451396023061503,-0.158434034145947,0.376751673802527,-3.42194414146684
475,475,5.98526690256509,-0.0150132308101355,0.897088932100674,1.33806652274622,0.00128337881114633,-0.0781718825367657,0.216199620253025,-0.263254632976792,-3.4616213894306
476,476,5.99768095184877,-0.01470241385096,0.896242382749002,1.32436183459042,-0.00336441270895936,-0.108329446433196,0.630367927069386,-0.822386668325399,-3.14726513125551
477,477,6.01011031266256,-0.0143820603899791,0.895235675019482,1.31440271593259,-0.00335951422601363,-0.134821755936441,0.67920352366733,-1.24636646882773,-2.93118585254399
478,478,6.02267140649216,-0.0141905081255795,0.894129150012245,1.30768194853694,-0.00132316014086486,-0.157135816841043,0.800068598654042,-1.45757483944328,-2.62491876564196
479,479,6.035170227719,-0.0141528013333191,0.892838437954584,1.30089147956311,-0.000191056183556992,-0.177365927995408,1.07863112580289,-1.32924710297179,-2.33173319745409
480,480,6.04752545138034,-0.0141654089880439,0.8913292054503,1.29235568098164,0.00034672094943653,-0.196071298883971,1.25385138938813,-1.14856966075784,-2.02137822110493
481,481,6.06002203206262,-0.0141733502719759,0.889727532849425,1.2845025301023,0.00016436830922379,-0.211155484491053,1.4633852255214,-0.735306881176031,-1.87430764197973
482,482,6.07294642630656,-0.0141279420135307,0.888148403829321,1.28114335750421,-0.000710375982303985,-0.221271721667459,1.57008015416326,-0.345200027665106,-1.55966209771554
483,483,6.08658863732178,-0.0139865528891703,0.886697383865312,1.28614129317319,0.00199182597019949,-0.224122927562238,2.39972938121627,-0.373663959270732,-0.725428112840153
484,484,6.10101366397643,-0.0136969154348517,0.885346248783599,1.30508841814069,0.0136760466912839,-0.215369860845385,2.43249541475838,-0.362583918488363,-0.00817530879732993
485,485,6.11603026428819,-0.0132920711156206,0.884012995672715,1.33779845162498,0.0287497305681987,-0.196055093516206,2.23461962281867,0.0550376563681861,0.833281881587844
486,486,6.13154884092817,-0.0128595618607035,0.882713069354412,1.38195337457736,0.032501942825284,-0.172450736222785,2.50248646384345,0.821903653344695,1.46895546770868
487,487,6.14748123895107,-0.0124852741043931,0.881456927452443,1.43567857033855,0.0195021477942969,-0.147493637828507,3.52291338184662,1.02588409523299,2.45614005705767
488,488,6.16373964860833,-0.0122535656602059,0.8802529360562,1.49103914038241,-0.00435519923094505,-0.13053551653912,3.62785068256415,0.614167291486345,2.98492972218786
489,489,6.18039749979327,-0.0121262241711896,0.879142572836741,1.55359333890274,-0.0116918370638761,-0.121752484389707,3.90897319041194,-1.48506242013587,1.85825228555423
490,490,6.19751743620549,-0.0120454597837483,0.878119669375063,1.62182638720736,-0.015845465718608,-0.117703926561482,4.01023542310523,-2.08341185384438,0.736726996593218
491,491,6.2149923072728,-0.0120666079242988,0.877122172480156,1.69299135978592,-0.0332646330098337,-0.111988451956294,3.62072694282611,-1.31025709734116,0.158325407774884
492,492,6.23271434333617,-0.0122474341682158,0.876082452244154,1.75239545916414,-0.0568329213986343,-0.105002557499938,4.16205769502579,-1.09618644176863,0.0165903566777235
493,493,6.25057604165513,-0.0126464418550533,0.874924956729424,1.79447908011811,-0.0745972814592898,-0.0934133366898002,4.05778586642387,-0.601329127360988,-0.540582769711549
494,494,6.26908215182161,-0.0132246008037286,0.873531097150658,1.84172189835405,-0.085464176424583,-0.0640508540484436,2.33996024297314,0.912262858502607,-1.04961707856863
495,495,6.28829712567539,-0.0139340980978921,0.871962264621372,1.88943291592813,-0.083773293390753,-0.0266366314520544,0.673577403635221,2.82808279940444,0.532826076561922
496,496,6.30745630222637,-0.0148224846438894,0.870403882722427,1.89545740147156,-0.0926761606688179,-0.00117301400709283,-0.341356405974798,6.31424185479003,2.58129826059278
497,497,6.32580235039018,-0.0159476754333436,0.869032274647615,1.84814110682075,-0.126958347794511,0.00999141500216743,-1.72235807419835,6.70071681402374,8.27434502116436
498,498,6.342583509328,-0.0173797347358053,0.868014045812154,1.84346637997585,-0.0929178173761083,0.018982786985442,-3.9218494826414,-2.25942282892164,5.7702966268114
499,499,6.35714617702034,-0.0193365188726735,0.867225627925635,1.86938952069356,-0.0923800712776007,0.0422297708516989,-6.36267317823119,-3.0366507303811,0.802639273358605
500,500,6.36999597906431,-0.0217792169766384,0.866564111845624,1.82663670874692,-0.121856578182276,0.0453677809927742,-5.51865482310295,-2.74764005035707,1.17751448216141
501,501,6.38212007281321,-0.0243969372622801,0.866213737733499,1.74222143264994,-0.156196301227334,0.0330665156512499,-3.88356086227585,-1.78841244552656,1.52693644127671
502,502,6.39450536142604,-0.0268734136560659,0.866343573004981,1.64555139235178,-0.185488112423244,0.0189452098821173,-3.60831061854911,-0.514755056071446,1.64575869624528
503,503,6.40813880647008,-0.0288893825665962,0.867109634288445,1.5606216900737,-0.187851814854024,0.0195275885636601,-2.78516756712604,-0.233827934313705,1.72277622593991
504,504,6.42330750592689,-0.0304909474369587,0.868687507454492,1.49968081226801,-0.183472432024229,0.045972513502941,-1.5901126978082,0.611901037821166,3.53633670674204
505,505,6.43934991201973,-0.0318948245169274,0.870968415874621,1.47420304106944,-0.156739753397231,0.0907272244140609,-0.99961386191292,-0.553288045930141,4.85661786814914
506,506,6.45582866392115,-0.033036876010787,0.87367852808787,1.47681356385203,-0.110680557992752,0.146710100220954,-1.42841549525162,-1.3479457439911,4.53945539768866
507,507,6.47230716439294,-0.0338481526802521,0.876540894428006,1.48333770612921,-0.07222720041432,0.202969922640162,-1.51796716115187,-0.415832576037485,4.29951222578625
508,508,6.48835080372316,-0.0342546476772267,0.879272955492552,1.4823673523459,-0.0538552674982976,0.245403085435924,-1.69151310717428,0.812499331161555,3.67871098539291
509,509,6.50404648394244,-0.0340378748369785,0.882012868963008,1.47621370523186,-0.0526935249640087,0.273998766557226,-1.95524220396403,1.48609417058611,3.02343303165765
510,510,6.51968478953476,-0.0332559121686138,0.884956743247374,1.47288311652366,-0.0540307999988256,0.297835036984286,-2.0246469011408,1.04808182041663,1.85434881820239
511,511,6.53514001911649,-0.0322419164097847,0.887901494511529,1.46964822182666,-0.0476459978303331,0.313301757362181,-1.62781527087687,-0.245271967029021,0.567654585434018
512,512,6.55028680914961,-0.031320124453645,0.890638205476732,1.46517972850967,-0.0340768305819873,0.317914815977712,-1.01202344083437,-1.48524009347986,-0.87194106128703
513,513,6.56499884742137,-0.0308049305832489,0.892951259315296,1.4604532775459,-0.0232545646301497,0.310563249068751,-0.858311657219241,-2.04636186547387,-2.16112134152339
514,514,6.57912491198538,-0.0307140727144876,0.89485608319024,1.45637039064283,-0.0290273708352552,0.288906627957528,-1.13616004166281,-1.72499537055392,-3.11070413446393
515,515,6.59275437576246,-0.0308302619099307,0.896496793787023,1.45042952309795,-0.0514380044034982,0.253908879031515,-0.906282061534131,-1.31000217057516,-3.51297761183962
516,516,6.60611999793456,-0.0311094069966605,0.897845479630504,1.44145194545789,-0.0818661285161964,0.21048031033274,-0.741681165898058,-1.16394397929423,-3.89247905906659
517,517,6.61945351706524,-0.0315081849802316,0.898872914429651,1.43000895295632,-0.108721494656861,0.163147527652249,-0.797002194610169,-1.31196076211052,-4.38417152319415
518,518,6.6329855904608,-0.0319835747192997,0.899548106191863,1.41766819199252,-0.126548510224615,0.116805277860329,-0.698854017811039,-1.46706652871343,-4.76610581413442
519,519,6.64684604425295,-0.0325596185936595,0.899830261114157,1.4054729513233,-0.137218121206695,0.0706406965938438,-0.514326955770784,-1.41474243761084,-5.03071348778024
520,520,6.6608814918034,-0.0332579448946242,0.89974198610189,1.39391607010339,-0.145471954795467,0.0210866446835085,-0.334393882034574,-1.02715735119576,-5.10288957352538
521,521,6.67489707490459,-0.0340361126223182,0.899345407434224,1.38139915494706,-0.150388190812464,-0.0299161720735066,-0.121455699738749,-0.569395089812779,-4.97323788960234
522,522,6.68869825815953,-0.0348570800840674,0.89870160855018,1.3676570863873,-0.151768792120154,-0.0803613897929036,0.0842853243677639,-0.100349093274706,-4.75175161245769
523,523,6.70209081713063,-0.0356887573070633,0.897870607772947,1.35342316182172,-0.150750388873844,-0.126658536044111,0.298433191486079,0.325575688495575,-4.45734593994366
524,524,6.71482147960446,-0.0365525088179913,0.896810542180025,1.33499936506949,-0.141376603194371,-0.169150570638713,0.354773012617599,0.227347547365791,-4.23054215055123
525,525,6.72701737233583,-0.0374762429733908,0.895487179469055,1.31103475237588,-0.125367757541726,-0.209203097407419,0.832881928491624,0.413683609335972,-3.95755340931888
526,526,6.73905394235169,-0.0384388518054459,0.893965437459405,1.28670603129002,-0.11111463894206,-0.243964419847568,1.043475622144,0.547768523585586,-3.80724237798915
527,527,6.75130712228861,-0.0394168220688669,0.892301716475626,1.26781083115641,-0.102665958051,-0.270972903741965,1.04352363003829,0.686549377292055,-3.46208231017094
528,528,6.76415539621271,-0.0403849487219843,0.890544481403119,1.26050691813529,-0.106121515064309,-0.287081768150152,0.790037381121285,0.544428361737497,-2.86550896194879
529,529,6.77764807395223,-0.0413119145635497,0.888574979129835,1.26828619756888,-0.123207712877742,-0.29110053798673,0.497007796788561,0.040067926295491,-2.30792105831712
530,530,6.79153251191949,-0.0422152753674384,0.886354957673264,1.28448686774248,-0.140490697326288,-0.288218643048284,0.702492175628384,-0.831393496043851,-1.28195288640237
531,531,6.80573904120202,-0.0431424000571726,0.884040825786528,1.30706071044819,-0.159251371700319,-0.281061371840959,1.38360807537982,-0.925292680786162,-0.133470117787991
532,532,6.82020004858344,-0.0441398797758423,0.881778965132143,1.33384833991024,-0.160924845265595,-0.271164396531063,1.49063931231887,-1.47788926833742,1.27402027012193
533,533,6.83484916154061,-0.045253469438978,0.879709640377171,1.36363041084449,-0.130838081946305,-0.258919680796344,1.78546333005994,-1.55336556869898,3.35179995115511
534,534,6.84959592782175,-0.0465159679659357,0.877836259220339,1.40049662177947,-0.0933772533065539,-0.237038655654053,2.99166904766462,-0.434700852122507,5.04076840285003
535,535,6.86448928102704,-0.0478987888286202,0.876054957451433,1.43462580424642,-0.0811385634029116,-0.206014307398517,3.86934498108082,1.91414968089614,3.76069086802964
536,536,6.87967070045273,-0.0493543693254912,0.874347203904529,1.47354229580354,-0.0776577765835021,-0.167962207910963,3.63193690522812,2.76617351165972,1.78559250987281
537,537,6.89528200722822,-0.0508327244192832,0.872693162768215,1.51536825246183,-0.0541117690566897,-0.129285234277853,3.5977906186848,1.27102426957861,1.56534236105986
538,538,6.91146679223562,-0.0522813612555586,0.871068789982387,1.55837601733152,-0.0227181629013248,-0.098061244739889,3.69030217374795,0.0529764563310326,1.87246089321463
539,539,6.92848947202239,-0.0539132329975094,0.869265238091887,1.60944209096729,-0.0162800731220246,-0.0715418392626407,4.60353705092423,0.29317783249832,1.66382133235281
540,540,6.94625560326318,-0.0557593832703051,0.867306193670952,1.66986892804898,-0.0274227104174224,-0.0479160662674585,4.05497903135206,-0.510521173347639,1.27330750019946
541,541,6.96436996768601,-0.0574952195420503,0.865510156968825,1.73630212172842,-0.0481950663528349,-0.0240309469757711,2.6032009342521,-1.50376258052178,1.24246823367503
542,542,6.98243511347064,-0.0588000065363487,0.864189983082715,1.78310580680823,-0.0756724694839401,-0.00699803685045813,0.707280559799589,-1.78002509821448,2.77019205139401
543,543,7.00005209938481,-0.0593574284923028,0.86365324898633,1.79635631997173,-0.0919903304858753,0.00414624488518626,-1.15302247704571,-2.89284729704456,4.24900915836068
544,544,7.01739979015507,-0.0588461759105646,0.864143261583355,1.75171433753344,-0.0900699809475933,0.0113642910337967,-1.65757363716053,-2.79870178444821,5.49362010459487
545,545,7.0347430756937,-0.0574904938426196,0.865461333818668,1.70773271010117,-0.0705190684193045,0.0307693365745023,-2.01686677890961,-1.22686957271905,6.0543313008561
546,546,7.05181404793689,-0.0557891469907031,0.867246854668146,1.70206892168766,-0.0127840254146025,0.0716417602706852,-3.89959917764715,1.50028491387569,4.64944559815575
547,547,7.06834440297898,-0.0542306811546172,0.86913258599101,1.69509388555093,0.0626489107586449,0.110501520542803,-3.81077703875649,2.71318698269421,2.20748886704775
548,548,7.08406232859599,-0.0532930601860861,0.870743920474736,1.67388216280044,0.0869171950870075,0.13041379248542,-3.37569147225671,1.79992827228933,-0.700568862555671
549,549,7.09853721911567,-0.052999134703457,0.871973555058569,1.6408067871618,0.0966630905647328,0.136173769175526,-4.13081201292742,0.00300622912101516,-1.94830946986032
550,550,7.11195000802415,-0.0530221564804544,0.873075311779618,1.58730285738282,0.0919666208431947,0.130555272089252,-3.08303247175279,0.20959483068727,-1.24622515585481
551,551,7.12494200116536,-0.0533093613827622,0.874208489896407,1.52410516523669,0.07785747123037,0.120042943866786,-2.94519566704444,-0.00332655500487857,-0.0982868094350893
552,552,7.13815337407642,-0.0538085479450212,0.875525572564264,1.45903010582613,0.0484387317687503,0.110694969688354,-2.70700469927349,0.935744879456266,1.62393244330192
553,553,7.15222293445056,-0.0544675855610029,0.877172745417642,1.41050439138326,0.0177127977286283,0.113339404416535,-2.19769725342656,1.44022533292043,3.17080680287731
554,554,7.16752586377859,-0.0553645677070429,0.879303883221383,1.38401902050732,-0.00816572898848428,0.134196412140317,-2.20281288234899,0.731748082997766,3.21694119189473
555,555,7.18363145625308,-0.0565257437317106,0.881823696556924,1.37364554660911,-0.0372973836912939,0.171174660577241,-1.80900972719134,0.0054948194793038,3.01935404625398
556,556,7.19997025379975,-0.0578252398487053,0.88450094356498,1.37896170439426,-0.0694542025449562,0.214188510719906,-1.88320049041438,-0.296705018722522,2.76839035480467
557,557,7.21597510551888,-0.0591429410563265,0.887099893286491,1.39246994756724,-0.0988821770965303,0.251467867622228,-2.01468678654229,-0.239148141962628,2.11229733831062
558,558,7.23108048204779,-0.0603644827752905,0.889378568998219,1.40166764730558,-0.119538513122811,0.271262784217368,-1.88960353392429,0.209669713965047,1.04581116432616
559,559,7.2451050420209,-0.0615013523636543,0.89137282706131,1.39926256901021,-0.127799355640035,0.27004125003929,-1.19458205137206,0.832924407331981,-0.224562453775503
560,560,7.25842858890333,-0.0626352308893244,0.893245259463317,1.38671196794341,-0.123166422733804,0.254783587946487,-0.449910561684978,1.29523767017623,-1.38630871720225
561,561,7.27132803384522,-0.0637613120479224,0.894939255353147,1.36920086593059,-0.103993220670471,0.230238304431159,-0.124556314868704,1.0970591985414,-2.38718150562878
562,562,7.2840808287462,-0.0648743968094464,0.896397286628485,1.35185402276356,-0.0789484832040022,0.201030879919111,0.0171906712067593,0.879715840926572,-3.07521029793782
563,563,7.29696513216261,-0.065968680467358,0.897560571804213,1.33734737653379,-0.0593348004870338,0.17118420908214,0.269798906272424,1.21589053627599,-3.51351800282231
564,564,7.3100232032055,-0.0671141878515549,0.89841862795494,1.33064198218147,-0.0431811663854045,0.137875723898237,-0.102913309739851,1.09825208071517,-3.5979015323313
565,565,7.32307337617491,-0.0683196837809502,0.899015475970374,1.32952865309653,-0.0296050353174127,0.09784473616201,-0.552647786397854,1.37708719952096,-3.95563671286909
566,566,7.33605845529414,-0.069485197191498,0.899370427482916,1.32943006349877,-0.0170252498086793,0.055096195881508,-0.554014858573871,1.66322128236577,-4.08548428418209
567,567,7.34892139148063,-0.0705082332082462,0.899499126087799,1.32913668636182,-0.00617025721789692,0.0133665483748253,-0.428481785791131,1.50300627257593,-4.02706114987077
568,568,7.36160527838329,-0.0712844459332648,0.89941386413437,1.32560978086973,-0.000667629181295721,-0.0240268291618412,0.0398435185733492,1.33067716595221,-3.86585766844205
569,569,7.37403024553888,-0.0717403495362703,0.899091653999481,1.31824708665019,-0.00174636242677529,-0.0567372161845854,0.438126508446632,0.930216388943391,-3.5401704841417
570,570,7.38623716568386,-0.0719459084712947,0.898525619651879,1.30902975944275,-0.00684828381924548,-0.087383918057852,0.573312846831431,0.265098104222038,-3.20114215268866
571,571,7.39834890411386,-0.0720095380631126,0.89774919539342,1.29870935226321,-0.0115625576309815,-0.115965604671492,0.691675679563209,-0.509867493532486,-3.07926366785261
572,572,7.41048664724722,-0.0720372446644027,0.896794016788199,1.2889781899033,-0.0119510174001723,-0.141145899710161,0.973181519823721,-0.945306106477969,-2.78514130245276
573,573,7.42277035751183,-0.072132509757092,0.895689466030956,1.28241818904886,-0.00993136889304651,-0.16308207396113,0.670159091484605,-1.06800236292195,-2.79351219028768
574,574,7.43505887279828,-0.0723155264962179,0.894357555401434,1.27573547074787,-0.00819507585187061,-0.184330548225286,0.570380178195482,-0.935407170087599,-2.75329436639205
575,575,7.44726830984847,-0.0725126959803197,0.892783000558673,1.26658989464917,-0.00625661665890536,-0.205562513931897,0.837061616840233,-0.532857802936522,-2.56298522372574
576,576,7.45960385625154,-0.0726853496563384,0.891081293026908,1.2582876359973,-0.00444982365501847,-0.223873858991502,1.03813379568973,-0.052452324961114,-2.26231168962981
577,577,7.47227185582353,-0.0727958138055532,0.88935932742155,1.25312876037251,-0.00424774601375905,-0.236430381661938,1.64316832840702,0.406819064720428,-1.66048415113684
578,578,7.48548126271344,-0.0728076439603315,0.887716228521433,1.25511841182411,-0.00428762993697905,-0.240955293003982,2.13216277468026,0.604945458413854,-0.771673030325281
579,579,7.49924630928273,-0.0726835359024553,0.886083872339722,1.26957918173321,0.00647594275433059,-0.233045279264736,2.40693811324335,0.426731647208113,-0.213266715409955
580,580,7.51342721269206,-0.072445459275907,0.884388047270207,1.29300975477076,0.0224179205428925,-0.215438094156198,2.31747441427728,0.627390303033838,0.725278577841217
581,581,7.52800682729653,-0.0721492045832286,0.88270762126511,1.32518266798498,0.0345671427959706,-0.193218867526973,2.01122157898107,0.66033663956872,1.63406650118327
582,582,7.54297146245497,-0.0718536223802771,0.881114034251117,1.36347120207677,0.0279828647083453,-0.171176313903474,2.46703017721515,1.11100001383778,2.08922631641563
583,583,7.55830997258106,-0.0716191512220714,0.879674926847686,1.40208665973047,-0.00348058634656066,-0.153051279766186,3.19826820615952,1.46459172250064,3.13423945159121
584,584,7.57405382351099,-0.0713911059518743,0.878417446981495,1.44688075326298,-0.0351416859441359,-0.14070517549955,3.16347409002702,-0.425672451379368,2.9475459140625
585,585,7.59021703220184,-0.0711283925211256,0.877291446371948,1.49931008692897,-0.0473649099171689,-0.130908970717936,3.31168970731025,-2.773723393866,1.33118510421478
586,586,7.60675967279007,-0.0709124194031288,0.8762503347017,1.55554319184984,-0.0616035928258606,-0.119593730239951,3.15501521873424,-2.53281519339844,0.380252417375155
587,587,7.62363996089538,-0.0708297303146287,0.875243600839534,1.61082503674742,-0.0842030100433238,-0.104043891330581,2.97295831822466,-1.52892883057458,0.103979453414464
588,588,7.64081625999943,-0.0709722342458104,0.874214773138079,1.65681139385525,-0.0985615092131544,-0.0852238049978842,3.36844388032749,-1.2648796805687,-0.0243252956666121
589,589,7.6588130937018,-0.0712943616985448,0.873107151868692,1.70261260771468,-0.0949479292622144,-0.0546096789476934,2.7252070816969,-0.570542541455211,0.245743763642391
590,590,7.6776556543705,-0.0717345074004667,0.871971190976855,1.75967676768602,-0.0885874312180914,-0.00910868099316719,1.2665773608058,1.88469193850723,1.43505412818003
591,591,7.69655470319267,-0.072361301814599,0.870903763220716,1.80084743153277,-0.0800129260613482,0.031810528580871,0.109611816678848,4.93747134930405,2.71750727341021
592,592,7.71472290631422,-0.0732456800430257,0.869992681136868,1.77739244769444,-0.0890961419780188,0.0515029995060125,-0.0812214194278714,5.94799349833019,6.55101662636539
593,593,7.73137395412049,-0.0744623287393636,0.869315634525914,1.74904450473366,-0.0692802161177676,0.0585853449564716,-1.88974999848151,1.33283702590612,6.56653109433291
594,594,7.74597706449872,-0.0762236877965892,0.868797949327548,1.75739733056479,-0.0559985910519962,0.0609308929788026,-4.13058377468885,-2.36830615210066,2.25757409026909
595,595,7.75905725230674,-0.0784782738038469,0.868395499993281,1.74283864425042,-0.0782399373077786,0.0553561292824745,-5.41692685284344,-1.67905777604084,0.332454258333109
596,596,7.77141159442598,-0.080908588806269,0.868218123775993,1.68991300844873,-0.113872460722126,0.0402379952464822,-5.35906075887983,-1.12905690642796,-0.303804618578398
597,597,7.7838373279691,-0.0831978230017648,0.868362863913196,1.61880397058852,-0.147628193509037,0.0240202857855587,-4.50825155214658,0.0477920557902664,-0.425222176549191
598,598,7.79713125019213,-0.0850304341383243,0.868915508333832,1.55273147805538,-0.156242912689208,0.0203392934121454,-3.30764156421258,-0.792948369118959,0.398650994488088
599,599,7.81142530789315,-0.086428906210529,0.869913630454215,1.50004018952503,-0.148985468302979,0.0382871623154522,-2.35810618835234,-0.76529151403535,1.44829923965786
600,600,7.82618623375787,-0.0876090788999051,0.871293254286862,1.4510944438601,-0.142825506870142,0.0710299310215173,-1.33817537245377,-0.593046779008608,3.54695817982027
601,601,7.84121145209542,-0.0885460827167987,0.872984032753767,1.423187245986,-0.128204358433532,0.111505967076303,-0.834356226511387,-1.02072166751908,4.5468749326236
602,602,7.85629771755997,-0.0892114017553228,0.87491420631227,1.41713566399613,-0.108833481710297,0.152716661441811,-1.59105091624484,-0.746830465684593,3.9103956129523
603,603,7.87124169345321,-0.0895734358483825,0.877009639320867,1.41167044463672,-0.0943500894819014,0.187440329773613,-1.63453016087169,0.377861633173444,3.42046364177011
604,604,7.88617207056389,-0.0894744004004466,0.879445687479588,1.40293783568392,-0.0799117953488954,0.217001906279404,-1.25646196663735,0.943453761440301,3.22931720672054
605,605,7.90122285655768,-0.0889431215324009,0.882277699656293,1.39792353254831,-0.0613905152399658,0.246657586841973,-1.13102721236718,0.937944648709078,2.86103882696084
606,606,7.91620083130884,-0.0882216121471174,0.885248050714508,1.39675266432618,-0.0430148481494171,0.272435861203939,-1.44436227653207,0.633404193725296,1.6044113357376
607,607,7.9309140922304,-0.0875431308392956,0.888094731648943,1.39513638997246,-0.0236949404962302,0.28943893365314,-0.905161428580133,-0.243432584952443,0.461472322679412
608,608,7.94517093763598,-0.0871316880358835,0.890550234223016,1.39221187687431,-0.0080192634525039,0.293258825285135,-0.557062615458734,-0.9667053262918,-0.788964231810181
609,609,7.95884594654091,-0.0869865845826404,0.892635306705406,1.39065779380635,-0.00578456207136455,0.282084855261472,-0.682089143326685,-1.13581739539437,-2.01018348007684
610,610,7.97207167818683,-0.0869488016385654,0.894531585815197,1.38721269457443,-0.0201378958518393,0.258782582882797,-0.708034447970346,-0.885282502660194,-2.62635283338483
611,611,7.98504261044686,-0.0870003759722119,0.896207301793298,1.38354076239392,-0.0465000101074109,0.227345416297203,-0.671689262380739,-0.677523573525011,-3.06524523783129
612,612,7.99795256395954,-0.0871253646549569,0.897628083882563,1.37555337139192,-0.0720344047286777,0.192364032652203,-0.277882208656556,-0.687957028695264,-3.22981351308231
613,613,8.01099466882631,-0.0873092996285317,0.898756619314968,1.36564081988334,-0.0891389842912052,0.156196306529377,-0.0430538919094032,-0.884890721561048,-3.31833480112858
614,614,8.02427175894388,-0.0875541147573123,0.899571733432861,1.35939193149513,-0.0986521655178615,0.118047032277777,-0.417002677905106,-0.936059414179764,-3.8031341934229
615,615,8.03765676404296,-0.0878638406439402,0.900100056487611,1.35421938511156,-0.106378645153568,0.0761960412844564,-0.649040403166996,-0.745197087453798,-4.11013989212818
616,616,8.05099730975265,-0.0882315288452241,0.900372860983792,1.34743629747335,-0.111507681739524,0.0326791434829498,-0.667103827820131,-0.658179221572848,-4.40574671152027
617,617,8.06414101080635,-0.0886549213537378,0.900420010013999,1.33596416063678,-0.113619839996105,-0.0107621540980667,-0.195279068989048,-0.477431978582087,-4.21988425404617
618,618,8.07693550854616,-0.0891360424074437,0.900269871087543,1.32095595621948,-0.114347021525574,-0.0516047629800667,-0.219200895136915,-0.134936837594292,-4.22325470300731
619,619,8.08920634043118,-0.0897318638666736,0.899907101604468,1.29811735768748,-0.110961622246607,-0.0896208611924178,0.130164239796564,-0.0614210548045676,-4.07470943328836
620,620,8.10105409015162,-0.090445161977506,0.899315759262203,1.26909942029887,-0.102835384126176,-0.125681690907402,0.391650622686767,-0.233457934194573,-3.79743411167329
621,621,8.11273787748809,-0.0912002261398312,0.898519346279342,1.2397138778305,-0.0960233235480763,-0.158378668548973,0.854778335292194,-0.0375595854409273,-3.67647179365703
622,622,8.12451641254416,-0.0919226012363747,0.897536976060087,1.21476096271272,-0.0945191974155901,-0.186649017628298,0.985632940622237,0.202437504844591,-3.45504489547018
623,623,8.13664915000617,-0.0925392004495412,0.896383323726982,1.19993412140318,-0.096533968618842,-0.20981282431443,1.02956476421545,0.444984309772924,-3.22160641114685
624,624,8.14908502197579,-0.0929737952831706,0.894955393552515,1.19920419366373,-0.104683206413204,-0.229134949046329,0.736479060170825,0.530856875873889,-2.95658761672404
625,625,8.16164773199762,-0.0932826807358005,0.893243384696906,1.2093538366746,-0.109217586755966,-0.246066346053698,0.379295824031866,0.150626232481114,-2.60183601895997
626,626,8.17441206968562,-0.0935893460650464,0.891389580722876,1.22460297259004,-0.106604411176344,-0.260358231839716,0.554000325065382,-0.351425541293979,-1.83941448836574
627,627,8.18745637422249,-0.0940125345927498,0.889524282815966,1.24290822628361,-0.101322514024755,-0.269569531592351,1.05639498281801,-0.390912829585146,-0.823403451802286
628,628,8.20086293447948,-0.0946669227672081,0.887769480455509,1.26292838075799,-0.0817616502814935,-0.271622326296086,1.52118831149015,-0.326519416496296,0.471399749534459
629,629,8.21461742203814,-0.0956556040227806,0.886099197830233,1.29022056938408,-0.0334601044812351,-0.259170609309246,2.04886040944986,-0.946425519857376,2.3454079262394
630,630,8.22867252569228,-0.0968998357288236,0.884417717999339,1.32979744878536,0.0171223246344966,-0.229954443844199,2.46113070733479,-0.724006883009795,3.9656377894333
631,631,8.24306160910912,-0.0982397645799384,0.88274282129754,1.37397024647015,0.0245257457305848,-0.193389520548611,2.81144774586891,1.71205894239182,3.53981908887768
632,632,8.25781569297737,-0.0995150388453562,0.881093510459563,1.42679037813655,0.00398023432034444,-0.154991809365174,2.69614829920253,3.25259349974613,1.39828452760244
633,633,8.27296413179958,-0.100564420637729,0.879488260833721,1.47588996284726,0.00205041657019129,-0.125690606150789,2.98456570947891,1.72466572000865,1.02412102946842
634,634,8.28859052068233,-0.101487994959455,0.877812145083419,1.52306508595485,0.0127331725341418,-0.109541876396109,3.57174179441901,-0.305856922026844,1.23784553758358
635,635,8.30467520777418,-0.102392080737501,0.876060935634248,1.56934627751189,0.00592731385678969,-0.102501947172116,3.94968562494623,-0.579125183621134,0.981238596879062
636,636,8.32109030124974,-0.10312430225973,0.874414933007194,1.61452130658678,-0.0104299444567188,-0.0972571047216076,4.11019411837025,-0.449122733000346,0.848787688801865
637,637,8.33770637979016,-0.103532946216953,0.873047995373893,1.65240745329946,-0.0271714299557317,-0.0870375813296287,3.49245325622399,-0.703926910510696,0.678189548089659
638,638,8.35439327854291,-0.103468534962305,0.87212771275498,1.66877288686904,-0.030397707654857,-0.072088914813268,1.67947356306404,-1.67790624298605,1.4373303253984
639,639,8.37158648866745,-0.102724416003993,0.871759646015805,1.66682807669675,-0.0121145624080924,-0.0481513190616334,-0.627542738774713,-2.94930775767264,2.81893642467613
640,640,8.38937085313703,-0.101415334120522,0.871839057601804,1.63419267848355,0.0170652685665089,-0.0187846547054442,-2.24001867050391,-3.46785656243366,4.32962106081653
641,641,8.40709290960403,-0.099869507277109,0.872212202965611,1.59691494036152,0.0547079394484745,0.0152678878084888,-2.75431527801407,-2.87188313793585,6.91614427363237
642,642,8.42409981677549,-0.0984003575132028,0.872717839857539,1.61517093536417,0.0904138042557836,0.0680445611238428,-4.02744739428298,1.62534894767051,6.14059501038841
643,643,8.43973581085685,-0.0973063416869717,0.873186155811519,1.64669591231896,0.149613985335252,0.117213625446722,-3.76020965340555,2.2188677601264,2.62186340156246
644,644,8.45334072587525,-0.0965510311358428,0.873495352631325,1.6323307609069,0.155080791955505,0.128358883621465,-2.84628231697562,2.74763705952237,-0.869437729979274
645,645,8.46535270917124,-0.095928370477146,0.873762954302118,1.57755789595958,0.145296765534846,0.114269188025768,-3.76310336462628,0.62914600629429,-2.074649243213
646,646,8.47675904357368,-0.0954747740994416,0.874168717729481,1.49348564789798,0.129391627674483,0.0904998235813936,-2.75628106895099,0.392979083934679,-0.527455795431346
647,647,8.48854613980255,-0.0952249461229909,0.874883181458337,1.40420898481556,0.106641949266132,0.0682833981050027,-2.12219184782332,-0.484687575981223,0.350868234994814
648,648,8.50169934329017,-0.0952097326481671,0.876069277517495,1.33644179155431,0.07471875362888,0.062343313572818,-1.98537164905505,-0.392083564991151,1.60863050873815
649,649,8.51672941646892,-0.0954460488007441,0.877926201873011,1.31005642315834,0.0282883540229654,0.0835895491389344,-2.00063994260723,0.767432387702604,2.96157560631539
650,650,8.53297396314962,-0.0958997061247121,0.880348636686564,1.31312170473542,-0.0209324113103157,0.123885415073191,-2.18178980618253,0.418334068281801,3.20246169599366
651,651,8.54965871963897,-0.0965277935854899,0.883039155552006,1.32745960532796,-0.0620042377442847,0.173918014495262,-1.7246585159527,-0.465370730583074,3.38868842728957
652,652,8.56601223199001,-0.0972976474098339,0.885692529516792,1.348480362242,-0.0924806211676782,0.221396186879463,-1.50771439456209,-0.95617189592532,3.36867443759387
653,653,8.58126547193887,-0.0981869798948515,0.887993261286132,1.3654859930218,-0.112944550524505,0.251691006846681,-2.08186497113852,-0.903993395487405,2.71894950912381
654,654,8.59521633216087,-0.0992809406920892,0.889966330849552,1.36909396958774,-0.123724118342881,0.261876607804519,-1.9143211849019,-0.433126497640368,1.50445337540604
655,655,8.60838076135114,-0.100602942941362,0.891821945828937,1.35822484164874,-0.13019819586684,0.259160784926596,-1.11500528949778,0.457051732328273,0.130278900061184
656,656,8.62106817537055,-0.102043334391565,0.893515370837614,1.33680923382734,-0.126359126903761,0.246355276768438,-0.552882760487569,1.06425910844135,-1.47216529270324
657,657,8.63358811005002,-0.103490144057358,0.895000542656541,1.31490251721622,-0.108321088628539,0.227377672290923,-0.488862404392368,0.932491066396298,-2.8049140132868
658,658,8.64625039042307,-0.104829215537125,0.896229631690719,1.29814286990937,-0.0870045081035764,0.204776838911375,-0.00105487691329757,0.742574492999407,-3.31965316991553
659,659,8.65905491795086,-0.106130005804204,0.897201796772185,1.29113233419419,-0.0648431636796605,0.175148012912573,0.0878586752754877,0.809831346369339,-3.26857348122278
660,660,8.6718000333955,-0.107470227257118,0.897952900733851,1.29225596857188,-0.0426297209205956,0.136944330917939,-0.453327556698502,1.11528008913736,-3.99002305824595
661,661,8.68449275096425,-0.108746163515957,0.898486914985566,1.29695117980975,-0.0236838155545405,0.0940722270823373,-0.209697764918074,1.56299704049566,-4.04983741726048
662,662,8.69713913194246,-0.109853357893525,0.898804825981639,1.30251116582874,-0.00805119419661178,0.0510723432926203,-0.130799941479259,1.67272728883317,-3.78030623101246
663,663,8.70974435048215,-0.110687149519838,0.898904543919453,1.30549691588859,0.00145095842075623,0.0124114691414001,-0.308769375436125,1.51490042774658,-3.59177818360842
664,664,8.72235423018434,-0.111175430067468,0.898766358675994,1.30454600261888,0.00314075968791498,-0.0219417301466235,-0.420053747447424,1.28090661122611,-3.69523197022245
665,665,8.73496711846837,-0.111390052769907,0.898393843316562,1.29867324668015,-0.0006912160978186,-0.055212316095448,0.0435605349594178,0.86687054374542,-3.32990553209738
666,666,8.74751510436569,-0.111440313613237,0.897816306052319,1.29126260933525,-0.00396142114678231,-0.0867359319304509,0.292339490839848,0.122118716246503,-3.09061348657418
667,667,8.75992875991805,-0.111432081702933,0.897060618883228,1.2836302954199,-0.00490981823488091,-0.115227078503205,0.312003455077725,-0.338620556963371,-2.99961030547574
668,668,8.77213762299934,-0.11146761079635,0.89615074333347,1.27495349932395,-0.00272276103773959,-0.140125649192993,-0.0011310604182296,-0.541372908854875,-2.80539695216938
669,669,8.78393759764127,-0.111529296491279,0.895020605752303,1.25854874040367,0.00154572769536333,-0.163073796574062,0.111543371851517,-0.773931482460997,-2.61406073333315
670,670,8.7953726967057,-0.111541955055361,0.893655428854947,1.23383052536363,0.00618251171663527,-0.184728939310462,0.360913049454987,-0.666621899943477,-2.2872861334668
671,671,8.80674385752587,-0.111521139336273,0.892149690386176,1.20982662773042,0.00957268599259798,-0.203107399251522,0.418925332275018,-0.421165175013614,-2.29829208078689
672,672,8.81835230671315,-0.111486059357422,0.890591981358713,1.188941007897,0.00930484133027446,-0.216595878937994,0.942676133528959,-0.141076626285219,-1.8225028692256
673,673,8.83050065000165,-0.1114596035539,0.889065619778276,1.17858231544609,0.00594025066589827,-0.223076607783881,1.60383726952297,-0.418353850077244,-0.950722548401159
674,674,8.84313717787101,-0.111435141946902,0.887490154182556,1.18265148989352,0.00307310416140289,-0.219775874945816,2.02127061370849,-0.473491215159391,-0.271830483009637
675,675,8.85605926077882,-0.111399425571468,0.885802781481603,1.20033760211248,-0.00139472687965603,-0.206785461174188,2.21771239624187,-0.337855359342887,0.467857577792342
676,676,8.86934669618726,-0.111367570608533,0.88410576203654,1.22935273411248,-0.0121164194530793,-0.188125272886078,2.17189576302279,-0.00906920995792142,1.19375072220398
677,677,8.88308214848899,-0.111354442430503,0.882496434001161,1.26633979635717,-0.031851604348203,-0.16921050058568,1.9727462216761,0.405000544289459,1.89194329442542
678,678,8.89735064252016,-0.111374383397476,0.88106968732523,1.3009640016737,-0.0534315764895279,-0.155780090347271,2.63360820834761,0.20877646325291,2.20141921558737
679,679,8.91225101189896,-0.1113868464721,0.879865852774598,1.33898202768536,-0.0771619148058483,-0.146243444846021,2.81801525871385,-0.114039773398815,2.10219122210425
680,680,8.92773355728432,-0.111381748478927,0.878816687632004,1.38797630984117,-0.100494135923019,-0.134954857559716,3.01768785041189,-0.544005000763523,1.66393179348145
681,681,8.94365834089841,-0.111418231340571,0.87785543761261,1.44223372037736,-0.110195261372405,-0.121347996074878,3.5094953897483,-1.48875276936807,1.10387656018762
682,682,8.95988197914905,-0.111556667910094,0.876913511229904,1.49890132194429,-0.107309509162137,-0.105085143025007,3.52595257799062,-1.69668017319661,0.251818284485462
683,683,8.97625880625632,-0.111859162748571,0.875918965167915,1.55071228794735,-0.100783115313304,-0.0869918069028138,3.48570191549975,-1.26151416472906,-0.389211166578146
684,684,8.99316102233149,-0.112255908260191,0.874776931223541,1.59599358577611,-0.0888931027658635,-0.0669468430680618,3.63554906612581,-0.619660104185629,-0.511520969654103
685,685,9.01068149437132,-0.112705777823397,0.873542771546138,1.63791068157959,-0.0688809108626175,-0.0432137913318357,2.92071312796638,0.415737797804395,0.050572970688143
686,686,9.02825526926367,-0.113313375250896,0.872365414175295,1.68349103958929,-0.051554095519085,-0.015835037540892,1.25787588387903,2.24188176784953,1.6268362875824
687,687,9.04531875452627,-0.114182184399726,0.871389358071406,1.69828128351061,-0.040215483106231,0.00238575052716514,-0.427895896819019,4.34520481895063,2.38308383360769
688,688,9.06130977503108,-0.115414919005278,0.870753984418321,1.65858188429623,-0.0611463669154872,0.00598276289749827,-1.02252710075113,4.29430499957191,6.93903669696284
689,689,9.07594679128589,-0.117206223770927,0.87049098188286,1.62510456990424,-0.0506092902575492,0.00611061320507679,-2.3020884832291,-0.659173536356011,5.28558084178769
690,690,9.08960509569725,-0.119482472171147,0.870513777617814,1.62225753065464,-0.075597495716028,0.0179088051601602,-3.88471280151431,-2.13612586054983,2.18282534986239
691,691,9.10270992892259,-0.121946520410938,0.870776121724705,1.60392154117834,-0.126344805515015,0.0332740987060026,-4.74791498309578,-0.487892548428026,1.0401758640143
692,692,9.11568668640244,-0.124303739443065,0.871224114856261,1.55849551718072,-0.167754498157063,0.0433612503277418,-3.99540475115776,-0.612961355465995,0.646334437697554
693,693,9.12895930600564,-0.126261889841519,0.871797054628757,1.51317434167663,-0.185052732631331,0.0528015636284049,-3.23770512508242,-0.411568007445602,-0.155197367088367
694,694,9.14246319828031,-0.127841212507455,0.872439896097405,1.47247552002147,-0.18598964772499,0.0685495915429826,-3.06294833025439,-0.373155758600444,0.373020231773526
695,695,9.15591574151241,-0.129239942779765,0.873190986708204,1.42726266524876,-0.178815410505809,0.0875139570928101,-2.71611542464058,-0.0511740898586482,1.50945093216667
696,696,9.16941139506043,-0.130435062230701,0.874125178051732,1.37853102514565,-0.163378727415622,0.109817488104878,-1.69645761689357,-0.444939695277684,3.1135102318898
697,697,9.18304354556358,-0.131402876894151,0.87531465111217,1.34496152771543,-0.137608773564255,0.134132630222169,-1.22261565058865,-0.939943606811837,3.61717786584717
698,698,9.1969045848295,-0.132120297552989,0.876829386298354,1.32675142984332,-0.116470548289689,0.154145064050001,-1.22385677549632,-0.139767777997391,3.25509165692538
699,699,9.21118985223136,-0.132487635020469,0.878846395592428,1.31620509365065,-0.0977124733254792,0.17622402164844,-1.15219911685445,0.694087584026595,3.13006232841703
700,700,9.22583313655178,-0.132533827122769,0.881323486320143,1.31419613568422,-0.0754538381989305,0.204047633801443,-1.28577371642189,1.08855063439554,2.5962017240069
701,701,9.24053621475707,-0.132423844342307,0.883999663624891,1.31827797049403,-0.0538047477985376,0.231802893681152,-1.6133126713676,0.919152090737084,1.93507244823666
