,Frame,CoM pos x,CoM pos y,CoM pos z,CoM vel x,CoM vel y,CoM vel z,CoM acc x,CoM acc y,CoM acc z
0,0,0.048058687987114,0.0608411138527497,0.953102658431779,0.00911946375747157,-0.0256257558853216,-0.00543292237447047,0.176463675748292,-0.131619501921534,0.0376945210665456
1,1,0.0481492943053468,0.0599747966590567,0.952872713193608,0.0123594961435303,-0.02635528609588,-0.0047336897803721,-0.195157614326622,-0.171212290528893,0.0760485537076447
2,2,0.0482346504973082,0.0590855711811366,0.952643519881877,0.0154594918562254,-0.02772887454541,-0.00371561270709178,-0.280321208794061,-0.115416973232573,0.136689222063748
3,3,0.0483222705066637,0.0582090682686945,0.952415486947371,0.0199513618746931,-0.0295939196172554,-0.00294811127785027,-0.383879856819876,-0.0949492829868794,0.109273917791771
4,4,0.0484196804735011,0.0573810392397524,0.952189337437296,0.023267808430253,-0.0311400285201989,-0.00291737423165079,-0.348691714280962,-0.00682642944088471,0.029041118230546
5,5,0.048534407447387,0.0566373378353939,0.951966172961911,0.0245043165188819,-0.0319557402249318,-0.00418542382040566,-0.40758106759133,-0.0097361934879473,0.0259823751499806
6,6,0.0486887757273716,0.0559521365185308,0.95174482321792,0.024026822311859,-0.0332921547202073,-0.00714802207659664,-0.243587865740552,0.00282362260481578,-0.0425547760950471
7,7,0.0488777262270147,0.0553017841249012,0.951525591196103,0.0220618783308973,-0.0349863113074859,-0.0112689315355922,-0.277391856287076,0.0402885393239121,-0.206381512617011
8,8,0.0490676909098148,0.0547253247923221,0.951312034794976,0.0197021331389513,-0.0355188061816044,-0.0161080625949773,-0.285962636688482,0.06922312568086,-0.283910991440746
9,9,0.0492250956039229,0.0542616137984449,0.951107515035006,0.0180027813614863,-0.0334515114125373,-0.021105874661472,-0.292113973645947,0.130893174814573,-0.352770942557662
10,10,0.0493163695952066,0.0539493048332268,0.950915150117485,0.0159275068230546,-0.0282464286769663,-0.0258399781879275,-0.249358727819129,0.191397178465371,-0.413088189453102
11,11,0.0493568873766541,0.053806031182858,0.950740735283108,0.0137078242386759,-0.0176783395836609,-0.0312312436241541,-0.159693040310382,0.230480044170287,-0.444180290376481
12,12,0.0493688686821505,0.0538056440046975,0.950583344902732,0.0109472702050581,-0.0027255169860322,-0.0375352972944959,0.00358753978933447,0.301461821674208,-0.504508712621854
13,13,0.0493290664474306,0.0539209222742594,0.950435271118697,0.00711631471404068,0.0150110177202388,-0.0435248487048018,0.130362806725052,0.347923321049962,-0.455004812592451
14,14,0.0492143332622586,0.054124629634783,0.95028802700388,0.0019887860597555,0.0323532731773032,-0.047870293162846,0.207313424811465,0.346873174517595,-0.339910005109646
15,15,0.0490016555424936,0.054389562770224,0.950132344138425,-0.0035603563084644,0.0461081289996975,-0.0492828681138913,0.15545712205577,0.482619930186206,-0.268079089699737
16,16,0.048639355708384,0.0547538870835036,0.949945924926967,-0.0102104304870848,0.0559812773637686,-0.0474781685950639,0.142702247884707,0.566420895169227,-0.0746997188419354
17,17,0.048142841263394,0.055235064576446,0.949734562166082,-0.0175088582242909,0.0631273268950571,-0.0431736872405096,0.0770310621197703,0.671600592041591,0.171480881605819
18,18,0.0475899616230511,0.0557752241780372,0.949530055979648,-0.0255726580365709,0.0685248356342866,-0.0370473327914659,0.223487382698255,0.705146218078662,0.509939806573779
19,19,0.0470586887504378,0.0563169660426386,0.949363585056775,-0.0322376087239308,0.0730486622682803,-0.0298726296186845,0.168497684070831,0.827169949911238,0.72038401397966
20,20,0.0466270637834645,0.0568032982547899,0.949265852321332,-0.0371665711499685,0.0784757689813776,-0.0225958586480783,0.18406614870782,0.864267952002082,0.858387084146296
21,21,0.046295743250391,0.0572109271751389,0.949251638327829,-0.0403558394082263,0.0843290943073452,-0.0137576666245652,0.253882204794964,0.945898794682515,1.0420607054263
22,22,0.0460130380664112,0.057578324992532,0.949299210278731,-0.0437595142787076,0.0894658905386267,-0.00263447771892569,0.301872525522022,1.01224928461943,1.03628677264213
23,23,0.0457784101776765,0.0579410977232877,0.949384174599307,-0.0451799380945125,0.0948184347588078,0.00880074223382407,0.252761458801991,1.01223009354104,0.883573990172647
24,24,0.0455911703140235,0.0583346179238756,0.949482071188999,-0.0445577047923247,0.100778963040142,0.0185209838157177,0.126224679614243,1.14315096927847,0.612207965925523
25,25,0.0454504496600797,0.0587941905074293,0.949568469038654,-0.0435815826051058,0.106675876963368,0.0245330139882011,0.0991633661099739,1.14736604507091,0.446094357776554
26,26,0.0453854384093806,0.0592935373149179,0.949661059432694,-0.0412982796777144,0.109335243644057,0.0264192608065475,0.00665289310003303,1.23515867016494,0.251097223083541
27,27,0.045396208458733,0.0598093353854583,0.949776062647752,-0.0378775106485977,0.110292815173367,0.0256820890431613,-0.00280210103183343,1.29563750900198,0.11174542589994
28,28,0.0454381413352611,0.060381369051205,0.949887044262884,-0.0328323388054685,0.111762366857725,0.0230557640091907,-0.0974660522833473,1.27994677892741,-0.143582782967612
29,29,0.0454667763999041,0.0610492519868479,0.949967492822653,-0.0268225526959625,0.114617581513182,0.0191269423368802,-0.0874371635109183,1.2302711085882,-0.440435194847177
30,30,0.0454378613591983,0.0618523011183553,0.949990634690688,-0.0208996743181745,0.119056211072844,0.0146442590193127,-0.119225335539097,1.2055312775887,-0.669150541616043
31,31,0.04537565860756,0.0627552385540047,0.94994789793127,-0.0188899340242975,0.126149501584037,0.009210941521536,-0.169816690835796,1.12586635603928,-0.890885876508266
32,32,0.0453091546356402,0.0637321764460703,0.949858024370949,-0.0150482346694645,0.134501072954662,0.0012843199144997,-0.146898319463114,1.18118080237083,-1.10618709138138
33,33,0.0452015195620838,0.0648360252771997,0.949734701871128,-0.00970345113008519,0.143334455372685,-0.0074350423086534,-0.118334424836647,1.23130367513487,-1.09130581678192
34,34,0.0450161907393102,0.0661193512165326,0.949591183377452,-0.00431935818318087,0.152232791284615,-0.0150381084792673,-0.000242269109683994,1.16333829027783,-0.978522361059841
35,35,0.044716907574165,0.067634397976377,0.94944025839563,-0.000693080541404831,0.159352329802514,-0.0199760213312433,-0.0491490302137651,0.852808164295336,-0.425021828318325
36,36,0.0442741336427682,0.0695062805602838,0.949260089383637,-0.00551759150406012,0.167525367359214,-0.0196976139130129,-0.194511835815615,0.90649924732268,-0.250447319935318
37,37,0.043712081644246,0.0716998603838952,0.94904250088472,-0.0145504521685151,0.180696049735719,-0.0171362715192403,-0.211652852563054,0.491058649572486,0.0665679998534148
38,38,0.0430756615415733,0.0740265774848167,0.948820138534496,-0.0247301420831015,0.191053058884387,-0.0135831850808161,-0.0334516469922485,0.215743345488782,0.377619575769262
39,39,0.0424101126962154,0.0762976213243562,0.948625247616876,-0.0327862114187129,0.197917675421898,-0.0100342720616335,-0.0735705000261848,-0.0900773560508023,0.395387202052343
40,40,0.0417608974915029,0.0783239994067365,0.948489929082314,-0.0380079289273068,0.201800406271513,-0.00708692298433151,-0.307828731998416,-0.450643998972587,0.444915487387879
41,41,0.0410489754051286,0.0801120628474831,0.948442122404091,-0.0407880367680094,0.197550967128828,-0.0040073126858436,-0.237677904398855,-0.592628410444536,0.535658153065477
42,42,0.040244842801234,0.0817874081121146,0.948460864889748,-0.0425324042804913,0.186217725961288,0.000149515334585245,-0.143607471077517,-0.592732331074551,0.54458084299327
43,43,0.0394680695917791,0.083339726177351,0.948505568399608,-0.0410019971981211,0.170968142629708,0.00401125042738028,-0.404587709463292,-0.57780289857505,0.341367507474647
44,44,0.0388380647117993,0.0847582866751743,0.94853618548623,-0.0364937533495818,0.153623417663906,0.0059295238529516,-0.451773490688735,-0.238322505217767,-0.0292559610779611
45,45,0.0384740919098483,0.0860316167542895,0.948513133826664,-0.0278403087809744,0.137363733313903,0.0041093390087515,-0.46806660403247,0.0898488923577248,-0.442180311143248
46,46,0.0385206225443869,0.0871237245135456,0.948424542855241,-0.0134906251542521,0.122936880795889,-0.00453864894063101,-0.376061823987013,0.410426883949755,-0.951009823270043
47,47,0.0388979089414858,0.0880392916272655,0.948301168346637,0.00416929993395209,0.10818946093431,-0.0189514321405225,-0.213210447687137,0.627417516898315,-1.17115810117077
48,48,0.0393883102584725,0.0888284519169997,0.948166594063082,0.0212462198657006,0.0927758227492543,-0.0347985446354269,-0.183223429643735,0.933405342151071,-1.22507398338354
49,49,0.039773844977895,0.0895435709152346,0.948042663336202,0.034012750018293,0.0779460804248521,-0.0478644689181917,-0.2858156623254,0.770435588828777,-0.951632694071608
50,50,0.0398364056731419,0.0902395179509858,0.947949248685795,0.0369090059049247,0.0631030098547805,-0.0530589499606362,0.00777435531428404,0.43821466090887,-0.583091391954169
51,51,0.039483970117567,0.0909062273783586,0.94786885638513,0.0201697698466952,0.0521579154250517,-0.0486232850783556,0.561212430000732,0.012196249156881,-0.185369732382512
52,52,0.0388602099847298,0.0915093614280469,0.947789635448728,-0.0137398858831513,0.0442297370926175,-0.0388555036672914,1.11868121150071,-0.24881526227827,0.471907106279355
53,53,0.0381014556379684,0.0920691324148356,0.947736837104807,-0.0553744128681572,0.0360877767199404,-0.0260849961069742,1.36117935769737,-0.487747545300986,1.1501155603239
54,54,0.0373451977633857,0.0926054045359845,0.9477336954775,-0.0922048871287007,0.0254139810237565,-0.0122378371471057,1.09328570163134,-0.711622162250596,1.31099681586057
55,55,0.0367300391012442,0.0931374996997042,0.947801619367354,-0.111675865381095,0.015675618805065,0.000650125761372627,0.505329229194794,-1.19538816327993,1.10037230309063
56,56,0.0362189078772535,0.0936567211903566,0.947946348040686,-0.10909506296931,0.00927277811943177,0.013443550482591,0.112631048510956,-1.67777755473636,1.09897390190322
57,57,0.0357204538649936,0.0941518018391453,0.948150967791401,-0.0917358145253457,0.00563385999088578,0.027920968495025,-0.0224339181232253,-1.82473664421042,1.1393980495186
58,58,0.0352927720556964,0.0946370402897981,0.948401005466894,-0.0660078868584806,0.00194952029223464,0.0418928629579353,-0.175084333770414,-1.94512102417151,1.00138335667906
59,59,0.0349941908827548,0.0951258096854807,0.948681129353924,-0.0413059719570301,-0.00178829887403667,0.0542448719536529,-0.124431380171241,-2.00361301989866,0.851182429876284
60,60,0.0348831573841517,0.095630696901542,0.948975428052228,-0.0234476025990155,-0.00274619299589925,0.0630294189902519,-0.086330537996783,-2.07195294789647,0.462290641849044
61,61,0.0350530095884263,0.096160556231916,0.949299996230766,-0.0140051482145934,-9.72776084031394e-05,0.0680246948190364,0.107172712743773,-1.97069217725569,0.210468397423585
62,62,0.0354655520771761,0.0967060684445178,0.949662556293555,-0.00903075016713062,0.00445347926017172,0.070328083403392,0.295044074560918,-1.87522176514832,-0.05795817815794
63,63,0.0359817329643245,0.0972523008495305,0.950034707935833,-0.00695447579711892,0.00920049114661993,0.0703680276637402,0.418615472051664,-1.82501778271428,-0.134124404949263
64,64,0.0364623725607682,0.0977844556966145,0.950388469454492,-0.00527645195338784,0.0142530744774431,0.0687424898691775,0.42695942394486,-1.81636935995134,0.0487347705258329
65,65,0.0367682721637197,0.0982877674063998,0.950696313316407,-0.00169022503586978,0.0168537391873541,0.0662993728153508,0.306956941967476,-1.7461593654711,0.23111878691389
66,66,0.0368447507647257,0.0988490257846165,0.950967937742704,0.0061876007376078,0.0157563502745982,0.063241872481747,0.0993604697941566,-1.61308140658323,0.207966791885529
67,67,0.0367841953977166,0.0994773140018827,0.951222691172343,0.0171472636090947,0.0123319494719431,0.059237586922234,-0.176874026360523,-1.51023419267441,-0.102492510540017
68,68,0.0366680175059919,0.100041451265076,0.951448019944633,0.0281003381273196,0.0056974515570297,0.0543202534993655,-0.298274990101883,-1.32294359414483,-0.40841048986717
69,69,0.0365776091062308,0.100410553593576,0.951631301839445,0.0358193111285085,-0.00240475172654978,0.0486579048361276,-0.122226011982652,-1.29436269720682,-0.420791897151704
70,70,0.0365944043643828,0.100454106284071,0.951759602638334,0.0395778907565218,-0.0121491257962155,0.0427434055665222,0.0397178116250102,-1.3358598785768,-0.397443553744573
71,71,0.0367540866099332,0.100111430153652,0.951822566658093,0.0388036806687537,-0.0255693505127578,0.0364388414499511,0.275280695075125,-1.29446324864712,-0.375781406751421
72,72,0.0370015422728974,0.0994692875592604,0.951832511712992,0.0342775486484764,-0.0432250734787363,0.0295532936858696,0.547040310332762,-1.19794873255668,-0.329828105836656
73,73,0.037282365869178,0.0986187749730973,0.95180908541889,0.0280562110436274,-0.0631794412792095,0.0225041358099275,0.600562521720459,-1.00382616321308,-0.408237811618276
74,74,0.0375425204395956,0.0976511511332206,0.951770142430676,0.0226749484843923,-0.0821370592703502,0.0152328481872986,0.388112500665356,-0.827031756611013,-0.608895534383692
75,75,0.0377283194292917,0.0966578075191993,0.951731556752502,0.0173935413725198,-0.0957963911029189,0.00789938538828888,0.354351908638282,-0.679785245494193,-0.716129232952802
76,76,0.0378206021651681,0.0956241924033874,0.951707356989776,0.0141469476654063,-0.103982139111766,-4.16358580311772e-06,0.0989478620098753,-0.604770387002389,-0.957782094651771
77,77,0.0378551650999832,0.0944892505631666,0.95168735654495,0.0113346527041653,-0.108952347720715,-0.00866575404132372,-0.00435971353266118,-0.518266613191048,-0.962277232730618
78,78,0.0378612009087509,0.0932750473874754,0.951648994259535,0.00810121672416194,-0.111674524261201,-0.0173756649913159,-0.239370383868137,-0.401027072630396,-0.514422466998302
79,79,0.037868155328505,0.0920041034532241,0.951568882764282,0.00542639875928306,-0.112817389998934,-0.0244589125693092,-0.605582098302879,-0.554675284867794,-0.675233168702812
80,80,0.0379056753606993,0.0906993711262277,0.951422972960117,0.00307006005596676,-0.115089117082903,-0.0306729721155957,-0.741149621716816,-0.422862100960295,-0.477156220455317
81,81,0.0379562084702153,0.0893139457904941,0.951203738989557,-2.99959962949957e-05,-0.118693316150336,-0.0360075531132502,-0.650174938390116,-0.451318152280148,-0.125093372032395
82,82,0.0380005593562176,0.0878332518252054,0.950926460513397,-0.00123117288836409,-0.123811196420968,-0.0406243136381341,-0.426649617551415,-0.254820966018877,-0.102275521530617
83,83,0.0380659102429189,0.0863290867805351,0.950600996562725,-0.00240655372629449,-0.131854521282789,-0.0444906738176901,-0.419579284007158,0.0464013271634465,-0.395782308079517
84,84,0.0381792724486984,0.0848732513947679,0.950237283139219,-0.0036885162954465,-0.137439967788205,-0.0480300714129215,-0.518329502196313,0.0298833999943763,-0.730834912253464
85,85,0.0383674386488585,0.0835374830453929,0.94984543806468,-0.00455386514153953,-0.137364570636832,-0.0522750669406188,-0.768981400223483,-0.000893024311029332,-0.933889714091529
86,86,0.0387344831669552,0.0822700432801792,0.949410476931793,0.00236610860837718,-0.131945097289248,-0.0581506287025422,-0.874774767002803,0.0671360438669286,-1.4457297607466
87,87,0.039262253266302,0.0810232948622951,0.948927450373695,0.00412027100785221,-0.115335470168993,-0.0642228521507108,-0.741671004084591,0.139501443341469,-1.27744417750582
88,88,0.0397939592311986,0.0798748167424106,0.948421049984605,0.00216558896446507,-0.0933681884024836,-0.069933903665625,-0.487156762379449,0.30423432363164,-0.6744671018485
89,89,0.0401728632221231,0.0789021580310723,0.947914844358203,-0.0027567368103295,-0.0746216579716467,-0.0741329316014324,-0.43056453880137,0.351789918543826,-0.323708769122697
90,90,0.0402422704210283,0.0781831283195225,0.947431126351278,-0.0141726934147541,-0.0582195084977685,-0.0761774853339534,-0.277228313056925,0.327525271572578,0.151408372036583
91,91,0.0399137420511537,0.0778577398532311,0.946946747319011,-0.0192484806809891,-0.0420752861393396,-0.0799315362053908,0.174329137287528,-0.24772139411199,-0.0392719194338434
92,92,0.0392905311356628,0.0778741346448384,0.946448246433021,-0.024429721337634,-0.0265461809043726,-0.0842442688026507,-0.162914237546106,-0.27913730152684,-0.264794759230699
93,93,0.0385039138154924,0.0780230513827221,0.945969944700225,-0.0299741099180609,-0.0126507478939212,-0.0865573779702411,-0.183683392926722,-0.152463612221353,-0.248124545061516
94,94,0.0376859932298804,0.0780955967771257,0.945543890090538,-0.0365601471733205,-0.00291814683458553,-0.0849357914872915,-0.19450632219121,-0.00606464829094993,-0.0502692410885307
95,95,0.0369698508189786,0.077883007567374,0.945199896475879,-0.0440154577171665,0.000452832131355611,-0.0772469302451151,0.108474077754503,0.473686443243737,0.412093268295218
96,96,0.0363241094587124,0.0773379164198019,0.944911120099257,-0.0517633974114694,-0.00586832546353874,-0.0598987017049365,0.239963924266208,1.00379334726213,0.945849512217376
97,97,0.0356603996817919,0.0766010936019105,0.944654774804789,-0.0595705660643698,-0.0176612592645889,-0.0338601277126564,0.357313448789518,1.40632940156913,1.44532563855793
98,98,0.0350275505004591,0.075744681434464,0.944465117424,-0.0667703960557581,-0.032060427164671,-0.00529393572140081,0.548026990347248,1.63822687587981,1.94472480542526
99,99,0.0344750085989601,0.0748394715493526,0.94437613616441,-0.0735087650311652,-0.0465048850710251,0.0212007258177966,0.721468738386939,1.74996294461477,2.4437652940514
100,100,0.034052673717131,0.0739553382368275,0.944421670530275,-0.0757313163185062,-0.0545221185635703,0.0416856720659754,0.510818635650935,1.58552249406033,2.46870947168708
101,101,0.0337811303786533,0.0730439018349418,0.944649310059029,-0.0713094883665954,-0.0553188606711831,0.0561268758315142,0.158497562792793,1.36017382383689,1.97026087927808
102,102,0.0336282669770808,0.072057208354814,0.945034485139919,-0.0616483186121706,-0.0521021579357653,0.067561940896157,-0.0990381599335608,1.47710374290877,1.32354902414269
103,103,0.0335648607262638,0.0710657089849231,0.945502938303909,-0.0494146684295413,-0.0476856204150754,0.0755874256569829,-0.180994464324448,1.62486837016153,0.604498170851356
104,104,0.0335615335976316,0.0701401778218524,0.945980611564664,-0.0379316134976162,-0.0424328414546016,0.0801938066563652,-0.131298100927599,1.70358137146331,0.02474848612523
105,105,0.0335888983858776,0.0693515691455297,0.946393718313234,-0.0283582614064453,-0.0371305310489951,0.0820426325248087,-0.196966267589784,1.78625341144986,-0.247802043741133
106,106,0.0336811173977494,0.0686418218054986,0.94675697456398,-0.0199251167817552,-0.0330637502572785,0.0804772614325806,-0.329435145796622,1.66753819332846,-0.2956799181073
107,107,0.0338576022274314,0.0679643987413226,0.947120166396735,-0.0116563699543998,-0.0292102786655493,0.0753210536915347,-0.354559666484653,1.55196019872477,-0.241500490105348
108,108,0.0340667514916386,0.0674074821921211,0.947462454034219,-0.00381729833826559,-0.0242735637425015,0.067660839928234,-0.341098031572782,1.35681224204922,-0.263249511441023
109,109,0.0342567535313968,0.0670589050365327,0.947762854198915,0.00215210096991027,-0.0171145025504622,0.0588638946144383,-0.273841612869456,1.24304165103116,-0.428241899340889
110,110,0.0343756479153409,0.0670059663071046,0.948000073220565,0.00532536722670073,-0.007472939965543,0.0502491804360489,-0.225156380777473,1.29182515090483,-0.52514329967507
111,111,0.034441223668356,0.0673052861492453,0.948168255991651,0.00640863903252612,0.00619875167304244,0.0412027022154441,-0.317083886834452,1.34299465359018,-0.639837897328511
112,112,0.0344869868669402,0.0678984698805178,0.948284112240885,0.00535052434938304,0.0232524838014611,0.0309016642993782,-0.415059980053591,1.28118839431567,-0.732896903685312
113,113,0.0344848112229274,0.0686999813988801,0.948359177069343,0.0028430036724973,0.0424921614553926,0.0206649128333124,-0.352720399732667,1.1246071862297,-0.706491591845508
114,114,0.0344069853470843,0.069624612742951,0.948403673027606,-0.000184506695942522,0.0611084658705172,0.011647010005174,-0.209688607268186,0.864893437084887,-0.65664302382251
115,115,0.0342262407156055,0.0705875129863212,0.948426332465495,-0.0032899735274759,0.0760589410318794,0.00468537551334059,0.0569470756704449,0.538825636004418,-0.617502356048661
116,116,0.0339039087696724,0.0716084751222978,0.948419045018007,-0.0110134247401729,0.0858989572119115,0.000810269430832224,0.0596581860377788,0.136333037900807,-0.691900177430534
117,117,0.0334580586448103,0.0727443730002775,0.948375972054841,-0.0148713308275347,0.0914394651630499,-0.00278313886609958,0.0900143568177444,0.146715083926867,-0.843630908753012
118,118,0.0329470138523286,0.0739660320317211,0.948307957826991,-0.0157016809912204,0.0945709157889122,-0.00576369760052001,-0.0029541584192949,0.213150267098754,-0.793215764885509
119,119,0.0324292845988986,0.0752441159705519,0.948225567078187,-0.015382204510006,0.0962587782214265,-0.00796537582769928,-0.0629788110641964,0.426817771135917,-0.549421270652515
120,120,0.0319635506182326,0.0765491712674483,0.948139107137392,-0.0136504339903894,0.0983302314158378,-0.00903713174267716,-0.133417034166066,0.575942052629052,-0.247468093303971
121,121,0.0315563672504525,0.0779059181063079,0.948022601837677,-0.0151592689166123,0.104808588870299,-0.00735723146709981,-0.318868258882766,0.480308361069368,0.113839248567361
122,122,0.0311689073104658,0.0793341651119031,0.94786886559864,-0.015878132852987,0.114166821497836,-0.00268653468444343,-0.448961684067053,0.889476293909895,-0.0724115998633893
123,123,0.0307921178500019,0.0807965032779977,0.947716001401964,-0.0170657860242619,0.1246545196338,0.00197448568097666,-0.403108401725219,0.626442446268054,0.220767014963739
124,124,0.0304171890643147,0.0822548775756365,0.947601827994347,-0.0174870593697805,0.132199265003631,0.00613359522074938,-0.122140483764904,0.585162982154778,0.472802608623002
125,125,0.0300354877910425,0.0836706963263742,0.947564007608296,-0.0168294056930093,0.135743668072084,0.00845439734090095,-0.0591467532923816,0.108610640904587,0.53205991895919
126,126,0.0295995560139869,0.0850640265400438,0.947652916472388,-0.0172332099461081,0.135075657786151,0.0110955748502254,0.136773716006186,-0.106370494907632,0.561425634730843
127,127,0.0291160865012136,0.0864594562601838,0.947843223520983,-0.0198461948762455,0.129475658609849,0.014854315538709,0.219746574185463,-0.188692044003791,0.600711915994148
128,128,0.0286574080815604,0.0878252601892334,0.948059100638127,-0.0215631979180667,0.12186807094658,0.0181341856409003,-0.00143700780886597,-0.3186639756057,0.475952731123023
129,129,0.0282953816958063,0.0891300248908461,0.948224790300665,-0.0192291988232242,0.116450736709075,0.018887781674699,-0.344419843894591,-0.167177673791263,-0.0345475686511104
130,130,0.028101476831401,0.0903423971119977,0.948264614473485,-0.0107729804381075,0.115527638949067,0.0153332463427216,-0.356110206744715,0.0280989602006413,-0.723973071394377
131,131,0.0281568631684672,0.0914483249891208,0.948147767690185,0.00343116213335869,0.118568931834152,0.00502665889111999,-0.371822490823137,0.217987401721545,-1.26619248471899
132,132,0.0284136400859643,0.092468513053477,0.947925853726233,0.0213187358763096,0.124601948766776,-0.0111197193628606,-0.272563299820927,0.232714963100493,-1.50434569827611
133,133,0.0287495056847624,0.0934233778153055,0.947646957349222,0.0368541888794784,0.127712973503231,-0.0295143976736546,-0.208037256657901,0.328555787006161,-1.37209925612108
134,134,0.0290421318491963,0.094332926436316,0.947359150165454,0.0486788575183292,0.126004527377024,-0.0464415601026397,-0.155727747268657,0.430624514191826,-1.30284113444363
135,135,0.0291690201970602,0.0952167816281892,0.947110403136582,0.0527943455961705,0.119230257023178,-0.058287102471057,-0.0143642604740588,0.344746010797599,-1.30082894728134
136,136,0.0290854038794099,0.0960817195269184,0.94689620963008,0.0405093622620763,0.107463071659289,-0.0660003260841264,0.393352733826565,0.121005585234512,-0.963834208964434
137,137,0.0288718392194421,0.0969116906234548,0.946687334727757,0.017642226603892,0.0912767286561987,-0.0717523851651573,0.719546901235205,-0.0225300750475148,-0.787181385276178
138,138,0.0285938903265186,0.0976935311688269,0.946493471360254,-0.0100794147091821,0.0707511373411933,-0.0742269515927987,0.794411595481367,-0.100256305141434,-0.37367182006555
139,139,0.0283178929229954,0.0984165474567909,0.946322670846987,-0.0355546437744263,0.0499945611815046,-0.0725892537604392,0.902728124829156,-0.143978578867503,0.186924397507657
140,140,0.0281111255522508,0.0990724906051557,0.946181286549368,-0.0502807404366314,0.0347474127682592,-0.0665289057976768,0.782845812743708,-0.505233522377382,0.817309731944375
141,141,0.0279752090629614,0.0996251662690235,0.946041641655772,-0.0503204519564811,0.0220204169486229,-0.0540429244333421,0.676207626717687,-0.762881143336612,1.36479390404483
142,142,0.0278650236109001,0.100083007297108,0.945899642620374,-0.0391134541454738,0.0103422071430696,-0.0354246550709686,0.258742959894747,-1.15018752045288,1.37333398296498
143,143,0.027778971450155,0.100506081276246,0.945794051655521,-0.0230271836279741,0.00196071579842416,-0.0140089459408149,0.0972338539298127,-1.43441381154298,1.36726555193648
144,144,0.0277163354874081,0.10095383397976,0.945761355692069,-0.00703279497323455,-0.00430450371125418,0.00697418752951605,0.114937564451254,-1.68928448198969,1.28349845458312
145,145,0.027677152314621,0.101484901410949,0.94583618277262,0.00324687579672978,-0.00532090594348071,0.0243183088493949,0.295061815905152,-1.9325694260031,1.28710237765894
146,146,0.0276494285478786,0.102113759810689,0.946042086116365,0.00806240595031212,-0.000773267579795918,0.0396931052262449,0.312024391527562,-1.96867992204275,1.35946366018435
147,147,0.0276341057837904,0.102802100359484,0.946352134771535,0.00959350634403621,0.00477051124619842,0.0550005102506125,0.326126548243839,-1.89902940688656,1.27590019797227
148,148,0.0276509611246127,0.103528034773304,0.946724344417588,0.00717001468867786,0.0103540143851161,0.0680865999351016,0.302675791865449,-1.96171871898858,1.0461404850735
149,149,0.027719854318092,0.104268961564574,0.947116997797322,0.00359717759049622,0.0166295167957324,0.0774042673183768,0.322780775707683,-2.14690531792901,0.80628961361124
150,150,0.0278607916841654,0.105001946003883,0.947488873516516,0.00490097382064446,0.0201115984090616,0.0820986706064596,0.139229015473207,-2.19336119112489,0.240958425133467
151,151,0.0280828992987547,0.105804012855704,0.947860628150859,0.0126159916701923,0.0231254030079922,0.0812783886892505,-0.0444552535529689,-2.22301573200202,-0.251153864941783
152,152,0.0283726692288688,0.106689173948357,0.948260274417386,0.0249603916396471,0.0265841182632855,0.0762440564345807,-0.129462171551178,-1.9989121736085,-0.398380752209325
153,153,0.028716214527874,0.107540393995261,0.948658263710804,0.0396554475126003,0.0290662980600003,0.0690506372803883,-0.233982100883114,-1.6519076945444,-0.448254925993281
154,154,0.0290997754852119,0.108241156212545,0.949024488158604,0.0528277011793607,0.0298651713642851,0.0610463660532055,-0.303872437072064,-1.34991226309928,-0.467499101172104
155,155,0.0295098667148488,0.108675370498555,0.949327720127637,0.0604764861175785,0.0268041259646932,0.0539536728247696,-0.422624095140698,-1.02416674441773,-0.405638231442978
156,156,0.0300107818162889,0.108838894778818,0.94956110394928,0.0609393657673929,0.0185939951063668,0.047004080730467,-0.440154111305883,-0.663885607763779,-0.396180818526399
157,157,0.0306109392984707,0.108810207591055,0.949747070120507,0.0566607556136355,0.0051973349776716,0.038954368159771,-0.365906833422376,-0.423671758797263,-0.468006766014812
158,158,0.0312134767339661,0.108596747445297,0.949897007629579,0.0499013958735502,-0.010832388046162,0.0304197385940867,-0.259536841146933,-0.348418537460268,-0.553132606581154
159,159,0.0317218621714568,0.108204972405612,0.950021733693075,0.0422204938586556,-0.0269662495122624,0.0221799010087571,-0.0944627025401184,-0.226033692299821,-0.560478574246184
160,160,0.0320399248956488,0.1076403325332,0.950131385516827,0.0356987460039701,-0.0407431550421331,0.0150043836874079,-0.0249201817349915,-0.254983321122822,-0.58368974408808
161,161,0.0321226778657493,0.106826552022164,0.950222580450192,0.0279601045295635,-0.0524823609389028,0.00835540100906677,0.0530560894736996,-0.26171249995888,-0.506678585023573
162,162,0.0320344545152843,0.105758531102124,0.950288835970412,0.0189627927152657,-0.0638298743438633,0.00151490251887926,0.183218520965866,-0.374394204950349,-0.527143642531796
163,163,0.031843307982269,0.104548334654573,0.950335060880206,0.0086491586929184,-0.0740877347275778,-0.00469845495728333,0.12851069325225,-0.376655884182995,-0.560886981075958
164,164,0.0316172805768843,0.103308675987758,0.950366165343893,-0.00224335659813817,-0.0830949295286249,-0.00953265192501607,0.105124019877014,-0.231667128715553,-0.264983871351662
165,165,0.0314244007511852,0.102152907583611,0.950387099334603,-0.00994840802799984,-0.0892156458222658,-0.0112605676149077,-0.0770622179623536,-0.236018897290703,-0.400812544305567
166,166,0.0312228445039153,0.101057097107827,0.950404207905266,-0.0134944900710598,-0.0926753399033481,-0.00983438593791724,-0.186862672781281,-0.0875122314924249,-0.224929253320922
167,167,0.0309674199199624,0.0999458262552545,0.950414964071029,-0.0187918020537064,-0.0907463226641103,-0.00562708129199728,-0.343789467742719,-0.129126900550429,0.156183519143799
168,168,0.030721206442681,0.0988560492664179,0.950410316147937,-0.0225662939713116,-0.0863622914718755,-5.51904140265267e-05,-0.436362556200417,-0.0243900436272985,0.425162324453607
169,169,0.0305473947808456,0.0978251145006248,0.950380244451825,-0.0251694360538971,-0.0839508765181603,0.00537249036854606,-0.392126243751449,0.0360109590272103,0.558101780167578
170,170,0.0305092102217441,0.0968907239215416,0.950313994793149,-0.0249017011748177,-0.0834038628156293,0.0091484378723839,-0.223498196967786,-0.159939575784421,0.49277960738228
171,171,0.0306313930438739,0.0960266797704278,0.95021230370599,-0.0184147684744393,-0.0822193517714884,0.0130877116364811,-0.333756956915287,-0.266596634929112,0.429988819216551
172,172,0.0308719965010703,0.0952090908956216,0.950081626485693,-0.00769183819341362,-0.0820536306504491,0.0184714210154077,-0.472351232944517,-0.294805884839328,0.243442849446454
173,173,0.0311940803624829,0.094479012443347,0.94991979689013,0.00486391349171054,-0.0833876247972657,0.0223698847944158,-0.481035804224178,-0.0206048196487389,0.101456675341284
174,174,0.0315606349608156,0.0938771330636383,0.949725063667301,0.0187026912328858,-0.0829927762328189,0.0222264870223471,-0.126139305943921,0.182840481185564,0.114983998193167
175,175,0.0319345776481021,0.0934439057884665,0.949496163733275,0.0269556235984361,-0.0772097437229798,0.0160701170155725,-0.0476102364208251,0.251762368668491,-0.0674005476483116
176,176,0.0323826014958791,0.0932083981039832,0.949238034217566,0.041282836578419,-0.0688222425837388,-0.00075065930235758,0.0316665818195961,0.0257258615377221,-0.99252168253469
177,177,0.0329288274119971,0.0931442993509718,0.948954864448131,0.0544013864791211,-0.0533332751850967,-0.0258452010822533,-0.157924510587677,-0.242896585262055,-1.96990922400581
178,178,0.0334722664073435,0.0932086553022204,0.948643363865787,0.0622375226213529,-0.0324127307120888,-0.0532901195209525,-0.277064825187304,-0.501587528055811,-2.6179087128842
179,179,0.0339120711366755,0.0933581696328312,0.948297974684936,0.0621699034306663,-0.00831411515287998,-0.0778395755475903,-0.0923913718524794,-0.716986311031363,-2.7245485594632
180,180,0.0341475579814397,0.093549194542135,0.94791064652901,0.053845589288182,0.0138290186202605,-0.0940826138721435,-0.0149288945503062,-0.555578409254419,-2.13354651224962
181,181,0.0341074731764618,0.093859257244039,0.947432904545004,0.0450909879104777,0.0282845749366276,-0.104695560761446,0.511989485859841,-0.148780429488514,-2.02115046534486
182,182,0.0338574725168409,0.0943178570583651,0.946869466158772,0.0253165908366544,0.0380748555873061,-0.112281310791733,1.00264503586697,0.133256358588605,-1.29980188512684
183,183,0.0335030503580512,0.0948088181849154,0.946289778055875,0.00129005372854495,0.043286551235182,-0.115262056950789,1.26690789478173,0.586341380918111,-0.308525859205864
184,184,0.0331508856204198,0.0952155821225827,0.945762500895436,-0.0214764275915584,0.0460613992101838,-0.112328511534769,1.2254835412096,0.714637460764808,0.78630412000861
185,185,0.0329089251846061,0.0954211687052375,0.94535550717274,-0.0356549801336443,0.0489197570606264,-0.102559745314647,1.04514726257637,0.740573778754009,1.5607060286825
186,186,0.0327372471596384,0.0953879395882119,0.94504824306666,-0.0274200252995657,0.0480547468215209,-0.0827916334271201,0.880395367714645,1.02436345197739,1.59781136377703
187,187,0.0325646815125334,0.0951939624507463,0.944793668724858,-0.00831292892367005,0.0436246855850613,-0.0512165832294635,0.107098591597415,1.52113888834214,1.56769985648428
188,188,0.0324535401788774,0.0948947720070029,0.944619061109336,0.0145669652259719,0.0365625600149417,-0.0143981878749479,-0.286187578475233,1.6636742227357,1.82504108154444
189,189,0.0324665915910757,0.0945450722817445,0.944551321364756,0.030195742585202,0.0286519052863862,0.0204723483537304,0.193266330695418,1.78391656699795,2.56583417683544
190,190,0.0326668964704596,0.0941990393106406,0.944617124847146,0.0321492037177964,0.0219599949072273,0.0464661974684193,0.59112284889449,1.92727917138202,2.45180420780936
191,191,0.0331145845032996,0.093841955649865,0.944866671304433,0.0301333082388562,0.0131145045973249,0.0604986579837248,1.47247577405418,1.66576867647596,1.43750356188827
192,192,0.0337685765808611,0.0934365718608022,0.945280433931038,0.019281275762864,0.00548941354137478,0.0710741374600792,1.29121417081195,1.52694279127696,0.650099748084335
193,193,0.0345399202500642,0.0930034645464364,0.945780560354368,0.00572063966034403,0.000383774211416297,0.0786583823638986,0.685101336976945,1.36410863022877,0.179548139082999
194,194,0.0353395558047134,0.0925635594145942,0.946289357073288,-0.00487132969368965,0.00458296231387635,0.0832422863357399,0.210813501568018,0.931866669569703,-0.235871243595744
195,195,0.0360785406957682,0.0921379568384237,0.946729354432488,-0.00698801914846332,-0.00410201752602645,0.0834748424170119,-0.513604678421429,1.86790724547924,0.0980785880329494
196,196,0.0367819863068856,0.0916302895409065,0.947118434617298,0.00225514022205529,-0.00129517446506733,0.08105171295947,-0.791364992598586,0.922440843238922,-0.472086450106375
197,197,0.0375092685555203,0.0910274323931605,0.947508593734461,0.0165321620774723,-0.00414365089529244,0.0734457104563222,-0.518168441986184,1.08772653019174,-0.34745218467974
198,198,0.0382227806789959,0.0904752312748552,0.94787386482748,0.0345354289179487,-0.00611127095732676,0.0635779057323186,-0.439157036350342,1.11584615531009,-0.684621001079553
199,199,0.038884404058438,0.0901191949667524,0.948188208065557,0.0496999715942991,-0.00631333454674159,0.0530900234450683,-0.215189471265373,1.2281398944355,-0.702427360762057
200,200,0.0394555217678548,0.0901043031716962,0.948425444314463,0.0567528163838228,-0.00295132486739677,0.0436232628379734,0.0405527789835755,1.31848261858471,-0.643964449038421
201,201,0.0399222266394946,0.0904867475947734,0.948580931570939,0.0500375141062415,0.00663970612090953,0.0368015858791865,0.311954533771022,1.22408299106825,-0.531868832365826
202,202,0.0403089240085589,0.091169614909343,0.948674520185951,0.0425929543141045,0.0231236915155768,0.0294451785895592,0.433393715668606,1.13129492693304,-0.746959133799193
203,203,0.0406346950742163,0.0920677871398613,0.948716057080673,0.0377496177983109,0.042816948128052,0.0219728863766195,0.362728435934964,0.91260474256543,-0.900762119733806
204,204,0.0409192458775685,0.0930964022497103,0.948714122304113,0.0361543974076724,0.0628333189149404,0.0144744100585643,0.252588064837892,0.726291312101336,-0.877865178997285
205,205,0.041182899404127,0.0941709477504538,0.948675806367515,0.0393914466007786,0.0787970221213,0.00700975209462328,0.157147952914371,0.436981446896878,-0.733535788951725
206,206,0.0414544187840861,0.0953378154326244,0.948562253976036,0.0414032128279479,0.0893225417002691,-7.6657959940504e-05,-0.0850029956426285,0.194460943032726,-0.650460324166959
207,207,0.0417205640555275,0.0966533273510919,0.948368814609099,0.0458377127934092,0.0954374951143135,-0.00822399897160603,-0.179604215978116,0.182318917026274,-0.795782891240705
208,208,0.0419391707512088,0.0980480094268027,0.948152605176731,0.0480260568713907,0.0985936983759549,-0.0158577786190424,-0.55420217277882,0.363518227517383,-0.0785443663008951
209,209,0.0420681638597699,0.0994522840340612,0.947970492229216,0.0486199298164468,0.101310924188431,-0.0187154244124086,-0.178547491497345,0.317340064339845,-0.983429907097448
210,210,0.042065534614086,0.100796528395385,0.947879145242913,0.0447806334495678,0.102194455939347,-0.0219776481071419,-0.481539752857621,0.0930500614109924,-0.285149692397599
211,211,0.0418400138669238,0.102110861390163,0.947914201781182,0.0309770879141345,0.106350098474626,-0.0179597385662447,-0.454034983944083,0.175207018989858,-0.320137445154351
212,212,0.0414201821332892,0.103441812375112,0.948037615581851,0.0126229325478036,0.107144954159484,-0.00951236598791636,-0.341287599134146,-0.103291569427581,-0.09264489262013
213,213,0.0409437507797303,0.10474402123022,0.948195415593775,-0.00425412424000947,0.104891732464856,-0.000270069623074642,-0.320416079039329,-0.256198165113825,0.158860015763653
214,214,0.0405483231298284,0.105971637904966,0.948333684257226,-0.0158878599050558,0.0997410644073216,0.00664452060038627,-0.179904275716412,-0.542968149182364,0.382127324153229
215,215,0.0403713946881247,0.10707826090041,0.948398800665451,-0.0184275354503358,0.0932007133631162,0.0079378476567198,0.220547045364608,-0.630736544619067,0.724238193029027
216,216,0.0404545687207276,0.108080242469558,0.948404241372966,-0.0206423602160043,0.0886377737967117,0.00470500413039805,-0.366939417219657,-0.491810661080456,0.0989988283363778
217,217,0.0407064957625121,0.109007146793377,0.948387180673722,-0.00944715055207629,0.0831968452041403,-0.00249707876870698,-0.697797734550041,-0.370300510148456,-0.697801041840021
218,218,0.0410649500766772,0.109832372859865,0.948329912252409,0.00803034336161224,0.077220953329991,-0.0126413366007659,-1.02068969890267,-0.314219319678472,-1.32586170623384
219,219,0.0414674473810963,0.110529793960636,0.948214363884449,0.0269701743429287,0.0682777029091118,-0.0248158400002488,-1.1277755016668,-0.143742491800444,-1.78639487153538
220,220,0.0418512121460785,0.111073627539528,0.948021881383578,0.0422547751933124,0.0562194886290295,-0.0381207276701839,-0.91852160299743,0.236928333907494,-1.992457911621
221,221,0.0423332414903078,0.111427936277903,0.947737866786615,0.0475427579628534,0.0460580040159425,-0.0560756649794297,-0.550730471864949,0.446173611916637,-2.19006022295437
222,222,0.0429545079587562,0.11160883142059,0.947377196654051,0.0483724750362185,0.0354708360092495,-0.0793123953781747,-0.171917594790013,0.553186110318836,-2.08932986723821
223,223,0.0435380657713585,0.111669409855917,0.94696392844366,0.0458845071145519,0.0238486694469019,-0.102649583476797,0.280707137335158,0.51951922130338,-1.77370422760608
224,224,0.0439072794555347,0.111663803879309,0.94652073245888,0.0370659651980677,0.0146244487456894,-0.120170170144926,0.619247981289966,0.00691864877972042,-1.22363413023997
225,225,0.0438859901441269,0.11164727942866,0.94606868238365,0.0205365611966869,0.00547550134092158,-0.126698666205524,0.893946915322562,-0.49978352245958,-0.633341746206619
226,226,0.0432457957698916,0.11155561863009,0.945524616955767,-0.00780953714155109,-0.0029025860996691,-0.119953788879772,1.15449022163308,-0.957383262922924,0.26439394719013
227,227,0.0421035115237762,0.111352929612656,0.944872869778884,-0.0449158147088999,-0.0101676509044499,-0.103274504075314,1.11630852660419,-1.47862305351458,0.889420136882344
228,228,0.0408018615320216,0.111138009562367,0.944234199883056,-0.0801541353764359,-0.0149172578526764,-0.0799462715097114,0.862971546094432,-1.88751237840643,1.47979598078028
229,229,0.0396843848965877,0.111009765287432,0.943729719169763,-0.104691882447871,-0.0170910988245115,-0.0534236535476821,0.443355349570955,-1.99093626938989,2.07881987214311
230,230,0.0390952717605019,0.111067057550312,0.943480966401366,-0.109669066317019,-0.0163969866687627,-0.0273389657489757,0.0613679806498128,-1.94479679507791,2.61595368176494
231,231,0.0391789852081385,0.111363255378256,0.943530703327983,-0.0894325426384799,-0.0125791901144495,0.000723577060272732,-0.424099054602292,-1.68929044986444,2.62580813667424
232,232,0.0397070038003008,0.11183354747732,0.94379644247833,-0.0502841366783438,-0.00614333350608989,0.0324464484813817,-0.694766813922825,-1.47700727698408,2.50314458466662
233,233,0.0404643322339243,0.112399099470195,0.944211125361503,-0.00646938831126568,0.00207290637852568,0.0631333296032806,-0.598136365779689,-1.49238232880197,2.07494883758675
234,234,0.0412360333239883,0.112980619873234,0.944707132609792,0.0288230776353257,0.00875437417730406,0.0886792430706257,0.0579787270419717,-1.30664300496508,1.74711264328004
235,235,0.0418072879177278,0.113498440372455,0.945216729359065,0.0489059501885184,0.0119191209745721,0.105771255921871,0.297390586724412,-1.34304599847213,0.912919137450354
236,236,0.0421620071141205,0.113964715486587,0.94578845745143,0.0509395655830438,0.0141554714602871,0.112767755550474,0.586834009286105,-1.60390043815974,0.411461153075803
237,237,0.0424435998618882,0.11443208973759,0.94646551228711,0.0426093209564925,0.0159047835481591,0.112684728211081,0.668974294788569,-1.79399840081758,0.00404676778811634
238,238,0.0426764657862073,0.114881361898192,0.947172556074283,0.0300644525898779,0.0163466604982892,0.10820156313431,0.505049563031361,-1.79482614576289,-0.164640464720035
239,239,0.0428849319335877,0.11529325674061,0.947834598616282,0.0190907729269324,0.0156002121517381,0.101708273138634,0.226262148741402,-1.72419202659719,-0.174614945125467
240,240,0.0430933305287877,0.115648453686992,0.948376987325353,0.0144951497927418,0.014862022469573,0.0957420626568371,-0.0557825061969583,-1.55393470257601,-0.0956331992126769
241,241,0.0433068607753666,0.115999428727126,0.948789736663261,0.019048727876324,0.0125688842805364,0.0902602231939247,-0.332808692862739,-1.33128433688282,-0.254041593681262
242,242,0.0435087558090873,0.116358193035507,0.949123880063125,0.0273348037557541,0.00814089995019772,0.0835100494016055,-0.347855743614022,-0.974661362687134,-0.382217639008645
243,243,0.0436905897950558,0.11664490163538,0.949396742474553,0.0356679848276779,0.00220728106795138,0.0757532795383945,-0.220674260732117,-0.65531946629989,-0.483685825238268
244,244,0.0438441677118186,0.116780095299288,0.949625695074054,0.0409299775710708,-0.00517634444320383,0.0672901260577921,0.107588191757961,-0.535826655304308,-0.478843220684137
245,245,0.0439615404490243,0.116684894310104,0.949827921109911,0.0398458573026497,-0.0125794745327268,0.0588251786464291,0.364986566939143,-0.370591526108443,-0.426072559736534
246,246,0.0440100576433987,0.116324378271955,0.950002121146004,0.0327262360337906,-0.0200290914420406,0.0503475304666258,0.583727974957688,-0.377784260858334,-0.327175220391962
247,247,0.0439947575181811,0.115752142823987,0.950140599197809,0.0229326439970201,-0.0290946647335321,0.0418838277534566,0.640886228772026,-0.339391010974885,-0.367623337443668
248,248,0.0439646122199278,0.11502237422029,0.950249417851272,0.0144688067144032,-0.0399565161587998,0.0336814303354569,0.501402597440484,-0.304188966125636,-0.557896583171582
249,249,0.0439688740358097,0.114188629958714,0.950332649688109,0.00828765201274922,-0.0520529782713676,0.0255938308380602,0.376444705223996,-0.367364700652696,-0.706577159150829
250,250,0.0440570516499492,0.11330364595372,0.950392237090794,0.00712188317547374,-0.0643641385029695,0.0176294755478471,0.15864049441643,-0.420400332332993,-0.814917774479348
251,251,0.0442467192657628,0.112383417050186,0.950429154659903,0.0120671462266405,-0.0782712534283316,0.00878416227761354,-0.0702314918656172,-0.449350737306588,-0.935313177633158
252,252,0.0445052294713784,0.111392572492128,0.950441654154094,0.0210133975469493,-0.0919694741453766,-0.000949124576792184,-0.267089494408518,-0.663296432343565,-1.0318406859011
253,253,0.0448069754135047,0.110306442535889,0.950425548001247,0.0296521710194177,-0.105368036778067,-0.0110588813189858,-0.456876201373859,-0.513619569464768,-0.667969998265307
254,254,0.04512637320217,0.10910068785648,0.950375985522624,0.035620093489476,-0.116547509845677,-0.0190602220894444,-0.742036573505402,-0.705983202647381,-0.77512455733164
255,255,0.0454378445185393,0.107751247544923,0.950287640362385,0.0391137600713442,-0.127673313042491,-0.0249853268518831,-0.662842968506147,-0.381444293558868,-0.589511151817962
256,256,0.0457708220711013,0.106161940314121,0.950160369782992,0.0347044053363628,-0.139566076965167,-0.0281766555169001,-0.532417899850577,-0.255122168867522,-0.174316125706984
257,257,0.0461427808382375,0.104349338144587,0.949996379226582,0.0295248891410372,-0.151499229920281,-0.0296073854272789,-0.378011981632256,-0.0428190374383772,-0.0509435634312934
258,258,0.0465100492983767,0.102458273558895,0.949793824816164,0.0217319182926654,-0.16318160262965,-0.0299188538940649,-0.201952110778469,0.309882427143139,-0.226628450472321
259,259,0.0468287180149954,0.100633138472435,0.949551197816945,0.0124641605809154,-0.17032531674349,-0.030358399615216,-0.072070842409005,0.231599350425421,-0.515927167634146
260,260,0.0470546121011117,0.0990180774643944,0.949267556309301,0.00369721499830034,-0.168041211815008,-0.0323759526270592,-0.13200795246269,0.0905810472349733,-0.328912199878761
261,261,0.0471756997595864,0.0975584949015821,0.948932449295157,-0.00218573768937512,-0.153976403276014,-0.0354447910229809,-0.299003795866621,0.182085019793873,-0.211303965563714
262,262,0.0472209599758378,0.0961578502429498,0.948548891468553,-0.00451277303322705,-0.134423081617088,-0.0391962558077552,-0.502207206414157,0.418469495902591,-0.241212406988295
263,263,0.0472075515208323,0.0948975715449771,0.948135956000541,-0.0057903476459428,-0.114367479740976,-0.0435469081700191,-0.376768674257342,0.601877317240672,-0.439959757966461
264,264,0.0471527075196123,0.0938594109015763,0.947711020253613,-0.0100541894501033,-0.09216179580785,-0.0483320632769926,0.193009999313912,0.186668539051223,-0.47895803970296
265,265,0.0470737214712293,0.0931253789204797,0.947289285785746,-0.013023779074837,-0.0709568302807072,-0.0530120458568491,0.284200179361718,-0.242901391536412,-0.623769441166726
266,266,0.0469500182329097,0.0928533009611486,0.946863740991673,-0.00494178972951839,-0.0548694444568429,-0.0607472433063622,0.244940348551886,-0.734463971268616,-1.37728106283373
267,267,0.0467691058704259,0.0929894196960745,0.946423713499408,0.00161806028518316,-0.0409803715953956,-0.0698538373296895,-0.0740366720478013,-0.860746143572508,-1.5381225013446
268,268,0.046560647909486,0.0932983360400682,0.945976892277981,0.00527247838914422,-0.0299648015909748,-0.0774064743655643,-0.233613560202124,-0.721874254556483,-1.01576235240171
269,269,0.046354707072598,0.0935443533920328,0.945530712311561,0.00519467548262966,-0.0226224809630957,-0.080268852337368,-0.232691939043521,-0.339078951397337,-0.209463014504566
270,270,0.04618184102527,0.0934913774099732,0.945092468617069,-0.00257322343949563,-0.0204225059397957,-0.0757754792238588,-0.0845465696090207,0.291277642089232,0.866744254661504
271,271,0.0459909180710727,0.0930703353830749,0.944621111993435,-0.00754778427308906,-0.0251164638056124,-0.0628680113980933,0.479033083226375,1.28166812628235,1.17824812881409
272,272,0.0457609009993221,0.0924388096674325,0.944110717971756,-0.0121202744400863,-0.0327315846235904,-0.0414488932655697,0.440818684295998,1.51554305061909,1.35240947294524
273,273,0.0455686041211332,0.0916999294319799,0.943620818132899,-0.0158912043561143,-0.0415591970040236,-0.016298450589265,0.266569448268337,1.57086923605491,1.53998198491701
274,274,0.045491828126723,0.0909564203921803,0.943210533931396,-0.0190917914506928,-0.0505840750141324,0.00759105300536684,0.183274999141768,1.42508804222878,1.87466854481948
275,275,0.0456092799865935,0.0903107740734546,0.942938675950008,-0.0213370820978727,-0.0550921707092137,0.0259762682580345,0.146065808878032,1.40682838772526,2.01334993511505
276,276,0.0460361712740645,0.0897781787186547,0.942834337762582,-0.0210799350932589,-0.0534322946888713,0.0392488814078938,0.0862416079208953,1.23896568590304,1.7099407726484
277,277,0.0467215636564704,0.0892892925588868,0.942856886948168,-0.0196785405736009,-0.0461157696500237,0.0504407700364108,0.108788571088907,1.31414810871559,1.25771262186094
278,278,0.0474952526195572,0.0888198885798567,0.942960513075606,-0.0167480250060501,-0.0339382875309597,0.0596949227734192,-0.200926432797976,1.11408937098337,0.597076590453265
279,279,0.0481866755422362,0.0883461331676249,0.943099444266596,-0.0169845402213461,-0.0281588543705354,0.0646781274224645,-0.136310136158125,1.51986560616589,0.0514713386279993
280,280,0.0486249801760594,0.0878446107555262,0.943227915806682,-0.0140252059162159,-0.0221790468848826,0.0670121286706062,0.176106532067517,1.84370243616526,-0.170777222319701
281,281,0.0487667519172306,0.0872531346563534,0.943333804801515,-0.0129484607806242,-0.014146427446585,0.0638894159247667,-0.142363001826471,1.82218869276492,-0.719851148800711
282,282,0.0487262687071014,0.0865876183614008,0.943447170669712,-0.0129073951996382,-0.0131806103146213,0.0550906854684635,-0.768015704919022,1.09840824760414,-0.65378042374784
283,283,0.0485689507881467,0.0859420313716289,0.94358562028566,-0.0128406656964054,-0.0163281395236797,0.0436913693392768,-0.734709187566274,1.32029094054019,-0.599959213813897
284,284,0.0483599267317507,0.0854102580306088,0.943766795894787,-0.0130800545136677,-0.0139754677124934,0.0325060038723445,-0.57423683483895,0.938766354446163,-0.916844409133459
285,285,0.048164062792801,0.0850859867727132,0.944008370240268,-0.0163332330785665,-0.0110914928003654,0.0236378184501048,-0.279576272482446,0.978783278517471,-0.905617435325342
286,286,0.0479742778016349,0.0849732851932937,0.944349711485792,-0.025074196095082,-0.00440372263831452,0.0174105942280185,0.016520427401344,0.807831448632282,-0.754953231562194
287,287,0.0477469359066963,0.0850097567023672,0.944779341527656,-0.0373988855967048,0.00630631788245233,0.0123478386542492,0.142650683227517,0.744435047571782,-0.58646645475305
288,288,0.0474919233285333,0.0851892307410815,0.945238763280712,-0.0514013293234224,0.0187512645330292,0.00831261676079995,0.289872306877872,0.811054671110618,-0.303993685174524
289,289,0.0472190911328108,0.0855055889245272,0.945669528748149,-0.0635762600517371,0.0308678189292665,0.00533034417114599,0.361302245405282,1.04649558922129,0.0488616338036406
290,290,0.0469382907241428,0.0859527159506534,0.946013244533786,-0.0709187560458818,0.0418111670970419,0.00372109988912861,0.317667476185266,1.13608605592973,0.356505883368241
291,291,0.0466283088262923,0.0865557746213558,0.946260167299597,-0.0719548871954602,0.0533100177142075,0.00442527747021177,0.173110861782164,1.07544309748739,0.472901796796967
292,292,0.0462821397688572,0.0873183433451853,0.946450644595722,-0.066734157890898,0.0656696769533145,0.00758205299506034,0.0325512236006609,0.882208406913021,0.363852501556966
293,293,0.0459310985474051,0.0882020969109259,0.946601147598513,-0.0564162764368107,0.0780426457718523,0.0116994495362418,-0.119914506520059,0.809045353081567,0.182203324891893
294,294,0.0456065904518366,0.0891691807120237,0.946727518078066,-0.0439079071848485,0.0897606703391742,0.0152737403499661,-0.199862556852561,0.824053441223418,-0.00179019472740461
295,295,0.045340102478261,0.0901823149313532,0.946844873393334,-0.0312587455324452,0.101201399452756,0.0167627481597463,-0.145209477897516,0.783118504342049,-0.110666237665124
296,296,0.0451707371439081,0.0912455539514417,0.946934153898811,-0.0164693005911905,0.112662703086029,0.0147965424081786,-0.0761668201497135,0.7281126093366,-0.334204975240472
297,297,0.0450775233350998,0.092384529294749,0.946985723909347,0.0011107506260662,0.123946202989678,0.0102320107324509,-0.0932159559742624,0.677076429957735,-0.455377406638242
298,298,0.0450020351824007,0.0935942689292739,0.947028042713272,0.0193582021323696,0.133133583291538,0.00499340581478435,-0.156413115143342,0.451342509313678,-0.21229255428672
299,299,0.0448858612887599,0.0948691253287671,0.947089192517619,0.034964087588627,0.137916095621157,0.00211340783417223,-0.398673598963775,0.58705743040595,-0.244787033944671
300,300,0.0446706075899384,0.096202823386081,0.947196987594339,0.0445122867508219,0.138974735604331,0.00135078790275873,-0.221268015513716,0.361542885339369,-0.00615975415659442
301,301,0.0442913436239393,0.0976810030298376,0.947373242921077,0.0465477874096799,0.132349408030247,0.00570155398642272,0.00503012477518346,0.065402097389322,0.502006034385808
302,302,0.043787560726722,0.0993071863717853,0.947599754995621,0.0430674309989185,0.123636472859988,0.015509303127142,0.107336636968741,-0.342096282207167,0.930730132531489
303,303,0.0432574354485737,0.100951688576062,0.947843972959371,0.0364987010982948,0.113758450813458,0.0261137169526376,0.237447891606584,-0.519956292922621,1.17002653561223
304,304,0.0427987790820106,0.102485014648945,0.948072875417424,0.029806232262902,0.105819613136566,0.0342541816533928,-0.0319386018213977,-0.616599251658946,0.934147725159174
305,305,0.042508983982647,0.103777811603232,0.948253130694884,0.0285547462062873,0.103151598904897,0.0356226649950393,-0.200212444937932,-0.283416277407662,0.267458246512049
306,306,0.0424614005034272,0.104763191132105,0.948392976571019,0.0336297831000677,0.109283178445104,0.0279578944171002,-0.66817601567764,0.0334632268796433,-0.721545423118933
307,307,0.0425908755544157,0.105527665601134,0.948515385582924,0.0468844883304577,0.117715692216205,0.0130744217810233,-1.02108001578453,0.183542048207147,-1.62037837077569
308,308,0.0427867989916756,0.106171920832851,0.948609405603973,0.0596957219232894,0.122696112295059,-0.00525959538254703,-1.00713658245365,0.403145057040297,-1.95423250796063
309,309,0.0429386609522675,0.106796236701112,0.948664115788899,0.0684422586039882,0.120612128207154,-0.0231664889759073,-0.709289923666321,0.656525555571596,-1.8253032814897
310,310,0.0429359994165706,0.107500379967366,0.948668451694442,0.0722101082139992,0.112736370579235,-0.036750337343257,-0.350561141492679,0.705772681181755,-1.54049415302418
311,311,0.0427896576942113,0.108298971193991,0.948604656139473,0.0577324873661797,0.105673748566161,-0.0469935464992993,-0.116105047202865,0.435848060846638,-1.27121847501087
312,312,0.0425726870103788,0.109124398618228,0.94848330382383,0.031303677700412,0.0979283026409419,-0.0565867687964873,0.393807294005516,0.174063405913842,-0.983019731920163
313,313,0.0422679243866766,0.109953253818765,0.948334402239856,-0.00145892761987345,0.0883220566961958,-0.0636538576991227,0.673976498421828,-0.161966913482552,-0.671937937752019
314,314,0.0418584926644604,0.110762908536077,0.948185912256407,-0.0328617555811964,0.0751895773183393,-0.0664000433615291,0.80651389227811,-0.195281856442506,-0.307874580096847
315,315,0.0413279819825235,0.11153153269859,0.948063666821936,-0.0558038376516061,0.0644505176014664,-0.0633642012810053,0.716610401187796,-0.512856874993552,0.16785343223794
316,316,0.0405567496675978,0.112233624806922,0.947925297364872,-0.0672265429435771,0.0572947986252863,-0.0519465417452627,0.641405808157339,-0.918937624626454,0.771256414960358
317,317,0.039555314069322,0.112884362028345,0.947752462086711,-0.0698948343130121,0.0510902276953463,-0.033153208810421,0.467144825101913,-1.15292646538859,1.24949363757671
318,318,0.0385034401827204,0.113523564002571,0.947604943818081,-0.0657035268557565,0.0462747491777026,-0.010728588004541,0.190216837850366,-1.3824384139042,1.62580470789267
319,319,0.0375815623975669,0.114191022822702,0.947541879002105,-0.0566668073901046,0.0429281920243441,0.0112420611013812,-0.0691720357102494,-1.48868254213069,1.70846046646564
320,320,0.0369706581635287,0.114926431600981,0.947621832532922,-0.04665902094341,0.0408882040519047,0.0287219049871616,-0.267599993983091,-1.51192025005334,1.77780048291617
321,321,0.036775614747632,0.115788800445439,0.94789834182804,-0.0370539095034668,0.038706443589453,0.0420395893907087,-0.296178211627413,-1.58529976238346,1.63352138285224
322,322,0.0368767107104734,0.116752170006527,0.948330277294364,-0.0246434540071802,0.0352205346799074,0.0537256606586606,-0.230174640774411,-1.55077777383444,1.10143744130208
323,323,0.0371182577725499,0.117728544316957,0.948833099406098,-0.0135310603694564,0.032834566435653,0.0628271971182257,0.050815257524856,-1.47487413915973,0.546749158042392
324,324,0.0373445386149867,0.118629670086559,0.949321744756623,-0.00459491508207662,0.0304073598541857,0.0684761716797352,0.354474537463583,-1.42397645773946,0.10582172826294
325,325,0.03739981985638,0.119367047214961,0.949711061524182,-0.000773573123032969,0.0265778681349029,0.0699661135738608,0.513497372112775,-1.47954590166738,-0.351053492030366
326,326,0.0372356972281996,0.119944839007224,0.949995568017776,-0.00163198710879878,0.0225734837671128,0.0662227084111164,0.529195738438705,-1.52472426651063,-0.670992158859822
327,327,0.036956008997908,0.120421554288126,0.950230536562224,-0.00459708169559346,0.0188126173241788,0.0580949163044768,0.365563984340461,-1.51768894703014,-0.908972457473496
328,328,0.0366333038806482,0.120790064343857,0.950422598095291,-0.00800379569349938,0.015103995701404,0.0479962626681498,0.290485963808663,-1.50221802024128,-0.815918577736419
329,329,0.0363401412866082,0.121043384702218,0.950578787008496,-0.00987626526763789,0.0102623565893804,0.0380534814554193,0.227524770463872,-1.47327936343704,-0.499363947220354
330,330,0.0361491761163609,0.121174805616836,0.950706309307048,-0.00834267924944144,0.00389422672198346,0.030579532161372,0.0256007289434941,-1.35281597884854,-0.288804454975923
331,331,0.036092504469915,0.121211001857322,0.950811582821366,-0.00351350679826507,-0.00566578773967011,0.0257275940345087,-0.120254394887521,-1.19802522159425,-0.208040093239153
332,332,0.0361211522438236,0.121156614512182,0.950892093563407,0.00357822346183793,-0.0186357903269682,0.0221631345183649,-0.21422449673844,-0.938818016245781,-0.19089595744016
333,333,0.0361863684459058,0.120972029308731,0.950941358979371,0.0110007895112338,-0.0325315481419034,0.0191152075838411,-0.247499864494848,-0.801925890111467,-0.192254471064361
334,334,0.0362395873165548,0.120617317265426,0.950952221996615,0.0168503584864877,-0.0455687557633471,0.0158240223476503,-0.0833788414399272,-0.78697390464143,-0.268013913539155
335,335,0.0362324646902488,0.120052150960143,0.950916592037173,0.0187071939504621,-0.0576682375410564,0.0117689654515655,0.089415657489466,-0.752714106293927,-0.327210803778718
336,336,0.0361630059462437,0.119197968652202,0.950818380662039,0.0157310971339764,-0.0685603480427797,0.00632820348608086,0.345415097600585,-0.696755639601296,-0.40578695019544
337,337,0.0360631946440088,0.118081192100549,0.950664987259716,0.00961277916215498,-0.0790638303009575,4.885866570033e-05,0.434054482297852,-0.607886663574241,-0.450260182574464
338,338,0.0359360054454612,0.116818816201226,0.950481968406585,0.00251348852671327,-0.0890086692414669,-0.00649094381067524,0.395376321581782,-0.422576204915792,-0.505275513778093
339,339,0.0357846522157598,0.115528044895022,0.950293742124483,-0.00446608830119039,-0.0978618570033207,-0.0124412784953858,0.335680405403937,-0.266260219197405,-0.483627438296326
340,340,0.0356125660468127,0.114326304745497,0.950123570920925,-0.00924094585699514,-0.104720019101464,-0.0170411264091311,0.20756316978263,-0.205596134659745,-0.476706849171947
341,341,0.0353876564697042,0.113232170668008,0.949963090802971,-0.0100946478965861,-0.110641257768288,-0.0204028206954331,0.0769729496747012,-0.117638440173227,-0.747284339249217
342,342,0.0351080020493269,0.112167099897685,0.949796234998975,-0.00987949652860408,-0.115200165013324,-0.0233231799243259,-0.174061983682705,-0.0119170106235809,-0.526366766413289
343,343,0.0348224678238361,0.111103496551084,0.949633671411488,-0.00862059429403964,-0.115437507266242,-0.0230624215654915,-0.330129711332918,-0.454487740631796,-0.901046187739004
344,344,0.0345799213153083,0.110014354767995,0.949485794144931,-0.00609661420248199,-0.113782230138325,-0.0238147961484182,-0.448022900589747,-0.459942608523755,-0.260914608965022
345,345,0.0344292031687657,0.108873138806816,0.949362789826926,-0.00658193087227452,-0.11113103428752,-0.0223510433318049,-0.499429811965465,-0.355041137808702,0.303155676625297
346,346,0.0343937744636358,0.107599688750741,0.949281993355668,-0.00512341707734373,-0.111591627564081,-0.01847077531624,-0.396463849048803,-0.162151431440733,0.369772638508624
347,347,0.034441436765221,0.106212753324153,0.949235974742001,-0.00484717430500557,-0.116605671490048,-0.012383899566676,-0.220351335039954,0.124300425709946,0.313736454688931
348,348,0.0345374044399916,0.104834001906594,0.949197377347932,-0.0048682485449729,-0.121695725265984,-0.00549319260989896,0.108419320545221,0.294183729703219,0.277911620632797
349,349,0.0346466864652711,0.103584576155688,0.949138550111731,-0.00669266439049266,-0.122089208875386,-6.7621713264405e-05,0.163891195759562,0.435773506691251,0.347914815089654
350,350,0.0347340682567529,0.102585224678404,0.9490318123483,-0.00429028652936912,-0.119525300584108,0.00131628147431097,0.188021407392291,0.449156387870171,0.510327748798327
351,351,0.0347941219951756,0.101900621664664,0.948867391243476,0.00109766649956525,-0.112368911238812,-0.00236221295752584,-0.00480412128578774,0.487219837343581,0.323565359895392
352,352,0.0348498592697151,0.101449595345123,0.948664268707737,0.00736692602939325,-0.0981944459731486,-0.00975569950580644,-0.0192921770884959,0.359229257772846,-0.0788266614213183
353,353,0.0349087961881103,0.101134159434129,0.948437980475144,0.0147997579795862,-0.0806527404149724,-0.0192111955346827,-0.0482505354128242,0.120970207828323,-0.81978155021926
354,354,0.0349788138956734,0.100856795102168,0.948203334625882,0.0181295597810364,-0.05807861690687,-0.0287770617101426,-0.0948960317567992,-0.456614309753077,-1.19250039316746
355,355,0.0350679984085723,0.100520505449491,0.947974116685413,0.0188701838739154,-0.038111224374208,-0.036910837245878,-0.099634561806286,-0.912989247492017,-1.40785596242644
356,356,0.0352006441772029,0.100141348137786,0.947730760234548,0.0189685165246475,-0.0245501089383248,-0.0457601172156626,-0.0741424783354872,-1.13488826708283,-1.45397169231587
357,357,0.035370604161054,0.0997846834588775,0.947464523107161,0.019640249588948,-0.0173608272191199,-0.0567896974408873,0.0856272621040015,-0.968841596282462,-1.21191168639184
358,358,0.0355403874228952,0.0994277291184249,0.947204394030928,0.0200258149061818,-0.0179202087964457,-0.0665279171554143,0.463303409419929,-0.47842438621221,-0.807199971447557
359,359,0.0356730361292454,0.0990475197605246,0.946978837933086,0.0188362764563156,-0.022487197198484,-0.0721801010567478,0.847484985586784,0.276940644729291,-0.150046227621105
360,360,0.0357323565269147,0.0986208117007346,0.946815727032587,0.0146789639260864,-0.0261976043035051,-0.0705224166845128,1.0541607386946,0.487891416982191,0.704253137943539
361,361,0.0356220953453506,0.0981273254024135,0.946700321391717,0.0064689857287852,-0.026062973381655,-0.0580336551877154,1.09176134054035,0.525026907489413,1.59635758701069
362,362,0.0353660885404393,0.097583072355155,0.946613447483822,-0.000970247857109091,-0.0221343995453665,-0.0361529291089785,0.666365063813707,0.548278620252603,1.93711860481578
363,363,0.0351093200581223,0.0970185614445501,0.946575563396023,-0.00287832885972685,-0.0182769530037086,-0.010231408271392,-0.0462209801011446,0.685915531441548,1.76509208459598
364,364,0.0349973168777742,0.096463815625581,0.946606853931746,0.000333917436590885,-0.0160073636861535,0.0142209328492819,-0.52586671475248,0.90166948405006,1.60009063359784
365,365,0.0351760769715132,0.0959484880376194,0.946727291332717,0.00581929155237603,-0.0141601940683848,0.0317272288868656,-0.302080240006279,1.1925431240653,1.53206105386616
366,366,0.0357758208714977,0.095484275791288,0.946974880210549,0.0110374375806894,-0.0108526761416969,0.0412731573697068,-0.0145339095332119,1.41783602234243,1.10033328646279
367,367,0.0367001642900374,0.0950507288551229,0.947335023982452,0.0150542857370212,-0.0055648454406618,0.0465132072739441,0.524335354034183,1.57596469965789,0.647272680169632
368,368,0.0377553986154813,0.0946290147712478,0.947748617889971,0.0188291039760386,0.00024685273175527,0.0488922241976184,0.653441234161065,1.57727118874957,0.0627995851358334
369,369,0.0387476976959425,0.0942003407505234,0.948156691853315,0.020151968943449,0.00381905555016651,0.0492913874523751,0.77668416704749,1.68158459684994,-0.221098568673687
370,370,0.0394831317049029,0.0937460404029122,0.948500467533727,0.0201223573509947,0.00502966161523245,0.0489786247996276,0.509322448977623,1.56246485770825,-0.335469813493719
371,371,0.0399182589701889,0.09319734698863,0.948784502690112,0.0180329089185378,0.00391103134601652,0.0473057111490371,0.280261356013892,1.31832689372029,-0.326390434528001
372,372,0.0401826879952661,0.0925667044894566,0.949047437886464,0.0154366837483281,-0.000453047540487291,0.0434733492471487,0.0835007338369154,1.21185520286746,-0.260209357530519
373,373,0.0403418958214727,0.0919575571217278,0.949281680137869,0.0136591001255949,-0.0064988692996884,0.0382866232445966,-0.0803603312871059,1.13256733975476,-0.267748671376913
374,374,0.0404611458198708,0.0914734379230486,0.949479671333636,0.013387756968482,-0.0095796262485462,0.0328470869350208,-0.234403902742467,1.01369797214338,-0.414262698047542
375,375,0.0406054790999972,0.0912178025999334,0.949634042441731,0.0151048016014836,-0.00774034517162225,0.0282065948603695,-0.247494465699471,1.05623085516756,-0.453349177007552
376,376,0.0407675535248377,0.0911968492846159,0.94974240852501,0.0179176028176084,-0.000424847011273629,0.0243930116312596,-0.139386009191303,1.16347651816663,-0.492059490598243
377,377,0.0409033326439891,0.0913421503263668,0.949810434124329,0.0191413722494912,0.0104865429934843,0.0207073804768587,0.00736348744102945,1.28441216322703,-0.367459663278766
378,378,0.0410227492616201,0.091644924230629,0.94984309667094,0.0186480432712311,0.0232048392429712,0.0169207405718309,0.239492837624481,1.24803007148391,-0.227011487063596
379,379,0.0411359032689891,0.0920961569496488,0.949845258201411,0.0172481198507156,0.036522661439925,0.0132700839557219,0.437998826662151,1.1197319080139,-0.144703450853396
380,380,0.0412531236243922,0.0926865516736886,0.949821515002872,0.0161584908121094,0.0483599339380478,0.00975382129520758,0.417396436415825,0.91512759256873,-0.157367239120988
381,381,0.0413704280049788,0.0934501683028909,0.949765437894146,0.0165351997155024,0.0583308503378499,0.0061310053210085,0.310352780719486,0.782338212898427,-0.252018125531906
382,382,0.0414804733864261,0.094392467666035,0.949675937002468,0.019978832785484,0.0670341738633063,0.00252213301894841,0.0983853027144537,0.762986165282018,-0.351632336375379
383,383,0.0415887736483124,0.095461427094716,0.949564776252119,0.0262248167898972,0.0734240371229964,-0.000754751932575616,-0.10458845008734,0.86041467206602,-0.380680011055383
384,384,0.0417008420191069,0.0966057373749942,0.949442778532177,0.0326477135396325,0.0777435555101814,-0.00347707788271181,-0.177756639305245,0.868182687670209,-0.265223621760798
385,385,0.0418222095043932,0.0977748819965956,0.949319732770833,0.0378880336697516,0.0816437067682075,-0.00526239305457145,-0.257653483075508,0.786486808538286,-0.14738011933773
386,386,0.0419585260184168,0.0989974309405061,0.949160236363583,0.0379894248734707,0.0869448150026511,-0.00579894770582933,-0.449371348092828,0.527435472888177,-0.228686307305374
387,387,0.0421055537261774,0.10030852493995,0.948957981068358,0.0393007314131835,0.0938964937906395,-0.00654429484662086,-0.45586336094332,0.437498062915556,-0.424868486538998
388,388,0.0422546082490284,0.101667130043016,0.948765277955947,0.0413133569119687,0.10186554987456,-0.00706043158965035,-0.398202990800854,0.0620698792412245,-0.419448672536397
389,389,0.0423976319108552,0.10303093477091,0.948633939739337,0.0442424027850026,0.107620871877271,-0.00633400063640136,-0.5652482867027,0.162274957406235,-0.254458302156331
390,390,0.0425270732346851,0.104356447382929,0.948615305855007,0.0470005788370098,0.106691981935554,-0.00417813657020919,-0.415857855863379,0.0545617871652363,-0.0683977927908624
391,391,0.0426300083476666,0.105676625546089,0.948766859623376,0.0374750745877911,0.102320890419031,0.00256928126862991,-0.364647454282633,-0.240576166617678,0.661129744590324
392,392,0.0427125873351483,0.107018921007192,0.949053579381108,0.0244065584471222,0.0933025064073197,0.0143936063895706,-0.360421534895504,-0.400062342965888,1.17112154990315
393,393,0.0427959723763315,0.108331312178955,0.949387701209001,0.011040316250477,0.0835182952615424,0.0266896913459704,-0.321685764341306,-0.560096530199184,1.26922088809939
394,394,0.0429009874243211,0.109562396072643,0.949681495962143,0.000593191612581651,0.078417463237045,0.0348716078751153,-0.170921565912845,-0.472217695301594,0.878973141486064
395,395,0.043048141849008,0.110661262315373,0.949847513988086,0.000303420479907386,0.0790960985584471,0.0346834313667176,-0.0567482470310889,-0.16679396240514,-0.0122554983247225
396,396,0.0432600293898599,0.111576724523706,0.9498806274952,0.0138543598884366,0.0860470848807977,0.0232729400660788,-0.358377404235902,0.243061723624057,-1.05597524189071
397,397,0.0435232109156366,0.112343289417948,0.949839635823004,0.0362880534533841,0.0968850468989702,0.00341095914712489,-0.579507134446247,0.264909025387844,-1.72439384359119
398,398,0.043803863088965,0.113038480382164,0.949733799448547,0.0582853002342223,0.105733166500168,-0.0203707218191971,-0.636124224370014,0.355039913330515,-1.94259822123709
399,399,0.0440680094580099,0.113739255670351,0.949572666169913,0.0743397858145972,0.109200358242613,-0.0434532836673957,-0.593255774992968,0.444702252816666,-2.04309967871124
400,400,0.0442814708059836,0.114521889424449,0.949365946851141,0.0814479676367199,0.108628686184103,-0.0609955640664681,-0.478691180825923,0.235771578154112,-2.1501993210923
401,401,0.0444803209535585,0.115464634185821,0.949093521796171,0.0725207117806411,0.10415313891532,-0.0748086947264217,-0.101268569056336,-0.0534877524343316,-1.98493628474671
402,402,0.0446867682468004,0.116514763537289,0.948752559169194,0.0507743917811757,0.0960035896198269,-0.0880214438380099,0.544058643144552,-0.237593477020136,-1.58007765296943
403,403,0.0448456510478489,0.117552322438074,0.94837773361274,0.023426676231594,0.0845781947272646,-0.0985270120728875,0.906163428904874,-0.22963802194668,-0.983235318009765
404,404,0.0449019752304364,0.11845868027492,0.948001960168132,-0.00269321199947322,0.0680655322420535,-0.103514624697883,1.02622757962934,0.0594046465542961,-0.326789194023609
405,405,0.0448010639575691,0.119116637951973,0.947656166843713,-0.0241269069915701,0.0531103424999695,-0.100656476332887,0.914835222739112,0.121784433649104,0.446585937779959
406,406,0.0444203419966984,0.119404796357712,0.947289028428934,-0.0381513265890634,0.038332762503188,-0.0871133644353545,0.769785326829072,-0.0206861334101018,1.30394965358518
407,407,0.0437956899437583,0.119402297836647,0.946879582772843,-0.0468644778942514,0.0227813628568552,-0.0643529402313957,0.498810716697411,-0.457217852351548,1.97134694340274
408,408,0.0431107828044854,0.119293992125574,0.946502279292391,-0.0481293023592712,0.0098278423216998,-0.037038493217595,0.279338994091489,-0.84763549521291,2.25666177367787
409,409,0.0425497669924627,0.119264912492095,0.946231197560607,-0.0435030477256775,-0.000997538344797358,-0.00945003570998081,0.0136639705872954,-1.05578559132729,2.02962627064444
410,410,0.0422972327262938,0.119500130541593,0.946140131667557,-0.0350961891684882,-0.00708349890999945,0.0132820324182905,-0.119082893598329,-1.06040184587266,1.85290696442246
411,411,0.042442192429532,0.120078534633567,0.94628176255238,-0.0229095469344182,-0.00574450007763348,0.031126442528303,-0.0499158303491753,-1.29424636929431,1.50520253020164
412,412,0.0428621965626647,0.120878412495862,0.946606169377792,-0.00957625271304498,0.00109483335823741,0.047497293011732,0.183151834397592,-1.53517337361678,1.19292876099842
413,413,0.0434250807271804,0.121783021858011,0.94703144540078,0.0028906449338457,0.010856768030458,0.0608615022254034,0.536857390802144,-1.58240801064175,0.900934522247033
414,414,0.0439987761303655,0.122674474000288,0.947473975444995,0.0136699938923996,0.019513059433336,0.070306841505565,0.703306493608617,-1.48114101777169,0.6076479137716
415,415,0.0444512193032286,0.123433925510328,0.947848971824492,0.0214985710086777,0.0238972301427469,0.0753663143325608,0.598769881281458,-1.51436917422587,0.195048600020339
416,416,0.0447699489426158,0.124074818349499,0.948162506103438,0.0258802622000532,0.024875003984247,0.0754253423507213,0.34876176360796,-1.50509415476804,-0.104540903714146
417,417,0.0450434094259369,0.124675142257592,0.948467962801001,0.0275805828791104,0.0255768978717902,0.0708666698723348,0.0303367358589467,-1.58314556221529,-0.484028013694919
418,418,0.0452906988377938,0.125212580252579,0.94875142180347,0.0288095647830823,0.0257399866383898,0.0635838707245316,-0.283799680121117,-1.61772465529043,-0.632981995183225
419,419,0.0455307804855567,0.125665059731416,0.948999450590023,0.0314045821426548,0.023634309770361,0.0556442983358531,-0.480250393402933,-1.67646204297177,-0.573466826702623
420,420,0.045782576561172,0.126010730413267,0.94919914846802,0.0354923279114681,0.0196039771548552,0.0487908404128887,-0.528953769130769,-1.5754741981055,-0.351770066357801
421,421,0.0460754202717635,0.126266770024856,0.949351178591813,0.040503406717321,0.0148181377871591,0.0431422775854773,-0.627720888316421,-1.58623176083389,-0.189625398358601
422,422,0.0463962768036082,0.126447605319985,0.949465950891103,0.0450765574736318,0.00840401916118302,0.0375239449754011,-0.671979349535715,-1.35488288432298,-0.245946880360371
423,423,0.0467005937856151,0.126527441096867,0.949545672848508,0.0480976209893076,-0.00103875386002308,0.0317719186556271,-0.466715785645558,-0.985965988603217,-0.365590700926773
424,424,0.046943881181747,0.126480476135725,0.949592201384823,0.0479035649251674,-0.0104611590240161,0.026014190203486,-0.177261186454578,-0.648528520861476,-0.487683944934406
425,425,0.0470817355799295,0.126280911528283,0.94960660522008,0.0431609996393453,-0.0179679874665679,0.0200670640097044,0.153782439094842,-0.575073952287227,-0.428546622060366
426,426,0.04709124568325,0.125884520495128,0.949576632467359,0.0340109981295699,-0.0237480690076056,0.0139405780389333,0.485666860104184,-0.498283257423483,-0.277117819133061
427,427,0.0470015361143656,0.125308838541921,0.949505809232678,0.0234854921452083,-0.0300081484436489,0.00804600802523058,0.488493624492002,-0.346279085930272,-0.333085325245182
428,428,0.046846594458211,0.124620709054477,0.949416386838811,0.0137716223403552,-0.0365323194103527,0.00308123468851511,0.389619917529506,-0.325969476145646,-0.383543278349344
429,429,0.0466607422514791,0.123886806351187,0.94932798291361,0.00523504794529197,-0.0417653606144907,-0.000710114573913366,0.242748436173457,-0.380903107277978,-0.344652933886795
430,430,0.0464786043598633,0.123173552195869,0.949257483696106,-0.000702123500885087,-0.0466609989560784,-0.00306902141822561,0.0578241104184011,-0.31849373910602,-0.180284136772774
431,431,0.0462528840590269,0.122509879303691,0.949204570557063,-0.0042061693260429,-0.0510146838032711,-0.00373654186953827,-0.246487805198269,-0.405361922867833,-0.105914319620811
432,432,0.0459607789866289,0.121851426464221,0.949156286394382,-0.00604752135523837,-0.0567273053326176,-0.00328371957641788,-0.408510560159626,-0.36761184103888,-0.0733719599840523
433,433,0.0456738825556707,0.121154652077912,0.949108764967348,-0.00789254480609778,-0.0645408451817282,-0.00277076211404126,-0.407829048208985,-0.240106372186749,0.0994975765684726
434,434,0.0454638452621998,0.12037625413573,0.949058246048165,-0.00887409533863618,-0.0731912901402755,-0.00202100136536345,-0.541370258396818,-0.307809712756979,0.145186923251757
435,435,0.0454023698815916,0.119473137845774,0.94900108535653,-0.0101841209350465,-0.0812487720168413,-0.000323325690009948,-0.758609641780484,-0.518058447422974,0.226552994912643
436,436,0.045543905191662,0.118375670318323,0.948947180667043,-0.0101445247670724,-0.0904346178796839,0.00154647950669085,-0.77021893230621,-0.670250892730135,0.300807281169184
437,437,0.0458410052672149,0.117112921081727,0.948898116464045,-0.00582415931188353,-0.0991335915846784,0.00354146855557994,-0.733363547155563,-0.484409861771817,0.378755604141746
438,438,0.0462124538227765,0.115789821094711,0.948837767904732,0.000713166883473054,-0.109852394870833,0.00502251332613957,-0.670936518590866,-0.148350230794909,0.084075468978271
439,439,0.0465768909775005,0.114511143914189,0.948750026986993,0.00652921979522611,-0.119798122819978,0.00500040778480625,-0.517193467642227,0.163546045171111,-0.264915139656118
440,440,0.0468527910035101,0.113381628521013,0.948619026322444,0.00614413992980396,-0.121477032567894,0.00255573801830805,-0.374474090501824,0.211179101956541,-0.44716050558214
441,441,0.0470586342196515,0.112380173464649,0.948430171159067,0.00206566876977829,-0.114646643434071,-0.00345601499518296,-0.260164927532121,0.312510395545856,-0.453264107862977
442,442,0.0472485493057913,0.1114371515215,0.948194830264229,-0.00135963447087114,-0.102010390290175,-0.0123379956341869,-0.185945874619048,0.37465111185015,-0.538168480518619
443,443,0.0473943192148836,0.110584423878642,0.947936245581814,-0.00543227925328044,-0.0851611320642502,-0.0226392303298804,-0.0347027853315486,0.392664610986627,-0.686162902057361
444,444,0.0474677024591978,0.109853644533592,0.947677080451951,-0.00837148368798115,-0.0693954231127546,-0.0329829327106172,0.205615105227399,0.30068121616566,-0.977558770195695
445,445,0.0474403930853847,0.109276247981584,0.947439146044885,-0.0103015706288166,-0.0530601854793695,-0.041651562362529,0.25672333907837,-0.177373484422891,-1.16098434804917
446,446,0.0472793450780854,0.108932791219608,0.947213112037331,-0.0043538311388958,-0.0413653369061628,-0.0515445981474967,0.313437558955442,-0.562346152840794,-1.54595788207841
447,447,0.0470024678924488,0.108802134349688,0.946985288964371,-0.000832925358554974,-0.0319972891621738,-0.0619682896717566,0.169778416960398,-0.65575715978217,-1.55112310224369
448,448,0.0466580331088866,0.108763251570872,0.946769626564718,0.000831173905327165,-0.0247370494347402,-0.0704764422636866,0.207092467829109,-0.578502129282216,-1.16542820383752
449,449,0.0462947228178358,0.108695428919528,0.946579150562676,-0.00157985865098711,-0.0190446726124943,-0.0745842353364117,0.275768186030832,-0.251234294174707,-0.560888535923625
450,450,0.0459617237366111,0.1084781395986,0.946425970993021,-0.0104602218189082,-0.014235019155019,-0.0718352224980136,0.494389524520844,0.134711632002014,0.524080438965567
451,451,0.0456048334836354,0.108065391010335,0.946287123877499,-0.0162615449611795,-0.0127241741141137,-0.0607329884770757,0.771731661133035,0.638229727437985,0.891114381086856
452,452,0.0451906602169206,0.107538108718685,0.946153475614961,-0.0232363172196104,-0.0120616315699347,-0.0414218333530061,0.66491104185272,0.859512939420367,1.30266694781365
453,453,0.044800616626905,0.106965785755613,0.946056985260251,-0.0303224505654674,-0.0107599749448194,-0.0184481214436787,0.493021260568496,1.04844306602432,1.53577163811723
454,454,0.0445169684613768,0.106417532495784,0.946029291568924,-0.0353453230640086,-0.00972340620044939,0.00338004756723784,0.204418440722286,1.18426531606439,1.70641344882959
455,455,0.0444227697476589,0.105962219757884,0.94610178029596,-0.036475300223836,-0.0101957891921554,0.0193881692362988,0.131310019544126,1.39066036473274,1.83324888850209
456,456,0.0445890187369249,0.105609257213567,0.946311477239657,-0.0349151128649225,-0.00971360922033798,0.0296374188552896,0.123103264481221,1.40391287786069,1.58962353401357
457,457,0.0449614893603682,0.105312212866901,0.946636123049715,-0.0330537019124933,-0.00780384666267009,0.0374550005550075,0.135539223669456,1.61153664373486,1.11870786103594
458,458,0.0454358719438113,0.105055922980196,0.947017923869227,-0.0313279005057541,-0.00429985588432559,0.0429561878612749,0.353216153735023,1.72008602419803,0.607068423841478
459,459,0.0459078111311047,0.104825177810236,0.947398975601646,-0.0281386893004557,0.000642943360152778,0.0463812023017111,0.247028703427975,1.68976062092056,-0.0821593896312524
460,460,0.0462728742945297,0.10460486234396,0.947721329707813,-0.021192281978851,0.0175794817128118,0.0491673798001839,-0.0570052967989114,1.00467604540907,-1.00083772793714
461,461,0.0465416163721474,0.104347262727195,0.947997481996684,-0.0165022408264137,0.0112788415753245,0.0463202656656563,-0.571222558219755,1.78058583539285,-0.622120138043361
462,462,0.0467840516456978,0.104062404260833,0.948265271317188,-0.0116920819668354,0.0186894658024079,0.0405245060745368,0.0105432462203809,1.0443182463508,-0.909139002774732
463,463,0.04698472354071,0.103822060779953,0.948504856067591,-0.0140764166518098,0.000345330211445529,0.0288840634933479,0.583962573541042,2.90537693972589,-0.173678972533889
464,464,0.0471280002093445,0.103698104930575,0.948696562476983,-0.00633896845347941,0.0116449521274564,0.0223127279142912,-0.238867968119106,0.469531949027872,-0.747865929532408
465,465,0.0471981463485819,0.1037623453166,0.948820979125583,-0.00325053563981909,0.0222989186789637,0.0162789771637134,0.283702091146742,0.828626385627329,-0.59267468490285
466,466,0.0471609861814515,0.103991776047731,0.948869557493453,-0.00247966031435948,0.0352443129925599,0.012494513810455,0.429086060167785,1.01835659697271,-0.360956173165111
467,467,0.0470263781012367,0.10433928423896,0.948856346366285,-0.00345979150289134,0.0485474201741583,0.00990822255095684,0.401066234414847,1.28702368969187,-0.192710513753255
468,468,0.0468446606227672,0.104840090859768,0.948795977126713,-0.00521952348001367,0.0610130241750968,0.00770596987635276,0.249974645470333,1.44407545222979,-0.0520108199330434
469,469,0.0466662778782025,0.105528978528694,0.948702726482604,-0.00609978163267752,0.0737020851396255,0.00554918866765228,0.0428135612349569,1.41498535284207,-0.0529817211701722
470,470,0.0465418363469687,0.106440252279961,0.948590342205033,-0.0046638250520581,0.085064569767399,0.00286876884232383,0.0128478891607929,1.28618072984578,-0.161523750462057
471,471,0.0464834297923971,0.107650393551513,0.948444429738614,-0.00431467936004837,0.0950392859719512,-0.000337958760981284,-0.0817900237663727,0.977290894062805,-0.472561191130111
472,472,0.0464567578876217,0.109135846291189,0.948257408870738,0.000146659093566851,0.105312266852556,-0.00530601297600889,-0.00680323430518831,0.77714032504398,-0.68042417427218
473,473,0.0464431824487688,0.110780753926767,0.948052344094606,0.00893153405137458,0.115674143646547,-0.0104201691632185,-0.218364752213642,0.540559098651855,-0.869520104901348
474,474,0.046424287027044,0.112469651721738,0.947851533014904,0.0183010505360779,0.12491019723483,-0.0146926203779149,-0.178087493810503,0.436193714371666,-0.706022073171134
475,475,0.0463818759120993,0.11408751017169,0.947676445496658,0.0272632264186399,0.131901164147368,-0.01696639547238,-0.0173259655060355,0.354738395937225,-0.478041800329942
476,476,0.046295472908306,0.115681187031527,0.947508900834339,0.0285822528595688,0.137571774116155,-0.0146802274656894,-0.0991443632907247,0.293945128820613,-0.0257191256647339
477,477,0.0461772398958948,0.117327986980227,0.947334829155987,0.0269536487796839,0.139694110787851,-0.0094388741778625,-0.12593667649075,0.323639392024316,-0.086380678843085
478,478,0.0460583669361255,0.118958268860757,0.947180932678305,0.0240735100125725,0.140036979749558,-0.00377964119055794,-0.0494750719059394,0.177572311529844,0.282706013002282
479,479,0.045970307537943,0.120501581921524,0.947073439055359,0.0212724853192627,0.135936239404806,0.00134861530357047,-0.00484866820212098,0.124642880479331,0.699898739281057
480,480,0.0459447224603109,0.121886783698743,0.94703824916882,0.0190953794350604,0.129962075019486,0.00479995905781156,-0.302834486732463,-0.17000552396581,1.20394545056704
481,481,0.0459699208863797,0.123092491144208,0.947115176868462,0.0178720695020861,0.119079595309521,0.0087038092042961,-0.192094167612002,-0.257895097097091,1.43766474514691
482,482,0.0460256934557468,0.124165092746492,0.947286641606879,0.0185446238386909,0.104388096978533,0.01379666027407,-0.227629839039496,-0.287682086678212,1.09142808728093
483,483,0.0461306972811917,0.125135106396318,0.947492692791518,0.0219957855122093,0.0919584641934271,0.0178914722156454,-0.417262384249316,-0.172927481345387,0.310240147806137
484,484,0.0463030970901586,0.126033355523426,0.947673790360428,0.0291680938787093,0.0833854995599987,0.0187234858540967,-0.724406713772722,0.0291519659895457,-0.674610414307802
485,485,0.0465605768266541,0.126890680762721,0.94777083276578,0.0379626665754711,0.078875402715355,0.0138395970140227,-0.923781113663041,0.249361560485828,-1.44136843426557
486,486,0.0470442211569682,0.127682779788756,0.947786134499979,0.0480356901918355,0.0774698418781828,-0.00106136195216809,-0.853633276121857,0.443798665527402,-1.9595120742657
487,487,0.0477417451452583,0.1283882910888,0.947761560585938,0.0567369319322962,0.0768853053364683,-0.0244960572619803,-0.478723038800106,0.637195266229258,-2.01665272415146
488,488,0.0484404673835819,0.129042700245382,0.947697111552754,0.0628032747109816,0.0777646455963739,-0.0501187588434942,-0.124282522609918,0.676951112309266,-2.0291244707732
489,489,0.0489277270105449,0.129682311738018,0.947591862437689,0.0623638837652672,0.0792023246608382,-0.0719490494058651,0.221904695459374,0.2981136986847,-1.75829497089015
490,490,0.0489909823393445,0.130344426165039,0.947443642886305,0.0507852431506948,0.0781997437143711,-0.0834518329849018,0.675635986947255,-0.152468242135618,-1.2334331086613
491,491,0.0484472363979085,0.131025458339902,0.947192575211616,0.0208394039643819,0.0750478326587295,-0.0825015110417411,1.00758240525622,-0.67190891339604,-0.689718097678676
492,492,0.0474376731575355,0.1317014510916,0.946840480767227,-0.0265072357035819,0.0706563163452696,-0.0737366088424118,1.39017042649781,-0.925515619215788,0.195951707316111
493,493,0.0462366140290394,0.132379977477208,0.946475855368341,-0.0780675620517164,0.0647057612381909,-0.0602866408298055,1.4779044845183,-1.1978902759789,1.16621373740846
494,494,0.0451188582122799,0.133068496660185,0.946186599604883,-0.120015327534389,0.0569435740494641,-0.0443848370947494,1.05423241792665,-1.356370768403,1.64116603840664
495,495,0.0443595692752576,0.133774214071281,0.946060177722008,-0.138583259999589,0.0496238971465358,-0.0279607618036983,0.411316984382971,-1.59321719801327,1.84434166055043
496,496,0.0439797544446056,0.13452394423756,0.946118000756113,-0.125580096274779,0.0457884838809555,-0.00785790488178951,-0.176933794350006,-1.75217516605495,1.85423656582434
497,497,0.043796374597758,0.135313676747904,0.946300785879315,-0.0885240580339271,0.0447942667341134,0.0172343200446439,-0.51532479945823,-1.68057221101202,1.86412961202447
498,498,0.0437788788545304,0.136103737401174,0.946573544423815,-0.0423070193450145,0.0442322443921761,0.0429452610826231,-0.7564363289973,-1.55169293264171,1.78711074740931
499,499,0.0438970205875257,0.136853932676968,0.946900042344267,-0.000773813953779963,0.0428548134369042,0.0642905687994113,-0.654000390831378,-1.55390894170119,1.37838960728376
500,500,0.0441208480163537,0.137523675344674,0.947243150476972,0.0256278250239209,0.0376984088386891,0.0771981437970921,-0.310243379651877,-1.31009743773826,0.768935254375476
501,501,0.0445374724669712,0.138110737272113,0.947637883051278,0.035404108457021,0.0308877384314731,0.0799419009997061,0.0700150783032275,-1.3056576877364,0.0794264559421902
502,502,0.0451674252966794,0.138641559647228,0.948106251535396,0.0344935086018526,0.024475468505686,0.075083316766884,0.522144035868884,-1.53690038540816,-0.360357009576926
503,503,0.0458808601939963,0.139118481112018,0.94859148388476,0.0288727021637457,0.0194001257049709,0.0662763728027524,0.710012809291782,-1.69734627424617,-0.624731488902806
504,504,0.0465477455059382,0.139543928087307,0.949037214679684,0.0231047576263688,0.0159857681717038,0.0568883327176323,0.530546213973524,-1.72108568437222,-0.553088952831557
505,505,0.0470379540537535,0.139920334635227,0.949387582794773,0.0213532828454885,0.0135724957231442,0.0503425530998721,0.289054345031018,-1.67848425577655,-0.234896441759161
506,506,0.047306419402399,0.140298000353965,0.94962789095792,0.0235695885889359,0.0123242554726254,0.0475999449198975,0.00220723316771905,-1.52773051043324,0.11216222024802
507,507,0.0474395958955208,0.14067477980973,0.94979637399141,0.0286817458631316,0.0113708492759483,0.0467880804230256,-0.265234567318102,-1.20020089448256,0.106531239328696
508,508,0.0475046757731878,0.140974543686891,0.949917138246834,0.0344219714965021,0.00861001976052887,0.0464482777367712,-0.336193066196481,-0.80453037221159,0.0379157698335464
509,509,0.0475689047369133,0.141121525564357,0.950014191426584,0.0395637477814361,0.0032183004396936,0.0451744183043942,-0.361161393531967,-0.534355619499019,-0.0900343139959402
510,510,0.0476995851489543,0.141040436610094,0.9501111423116,0.0409288322998643,-0.00601891412951802,0.0416994149374782,-0.189080185002136,-0.386701510742234,-0.0915948592881069
511,511,0.0479263764815391,0.140692724113299,0.95022279631123,0.0397036398273021,-0.019483251959054,0.035431304844925,0.0201209028174655,-0.470799930497438,-0.240988715705268
512,512,0.048204093382264,0.140129228110758,0.950336804736568,0.0359498875251288,-0.0351543856684747,0.02718861050544,0.296332232250299,-0.612998569073011,-0.432199574521468
513,513,0.0484879011211947,0.139408950292064,0.950434535093553,0.0317029129933751,-0.0504224665731934,0.0180273893734224,0.369837144709891,-0.772997648278887,-0.706570408212794
514,514,0.0487331010075288,0.138590533590561,0.950495622764961,0.0263759462616046,-0.0634808623121372,0.00907299911015038,0.42769845817214,-0.872760964915641,-0.775722325955895
515,515,0.0488951389135104,0.137732180510665,0.950497816629768,0.0217749280468877,-0.0727105542940492,0.00124602819672308,0.297142080107233,-0.874066444102028,-0.885480638466189
516,516,0.0489467880363739,0.136831152460316,0.950426728650636,0.0181208481954563,-0.077407028438152,-0.00625836219227232,0.185837450180832,-0.828430088199531,-0.905414909029377
517,517,0.0489176449052805,0.135848823297334,0.950297156671721,0.015392036303133,-0.0796949330167943,-0.0142000189154505,-0.0322640140137802,-0.635842824433193,-0.838665101187201
518,518,0.048848608386885,0.134788939656476,0.950128668293904,0.012573574983079,-0.0810491853074617,-0.0214666421810513,-0.0866062297137421,-0.584273786468384,-0.653959745660689
519,519,0.0487807339247636,0.133654863124722,0.94994007401937,0.0107133189668012,-0.084598589136996,-0.0271388260285239,-0.251989453420383,-0.478180324943128,-0.546988126678621
520,520,0.0487552277995906,0.132449631452269,0.949749522262411,0.00784819921143388,-0.0915866482425121,-0.0303434593839848,-0.410603267613103,-0.34247364230109,-0.223360083991215
521,521,0.0487725620065498,0.131117007719402,0.94953958592866,0.004817529652702,-0.10105812839374,-0.0289787734250182,-0.580757157223935,-0.516571863362075,-0.191216566398517
522,522,0.0488055370795588,0.129654025393443,0.949296657764612,0.00284093656304844,-0.113502280815758,-0.0240391928709778,-0.524010110165645,-0.423283551086404,0.0452203787922904
523,523,0.0488539527269016,0.128144020828104,0.949044332584812,-0.000434753794237292,-0.125539563739889,-0.0182835506476302,-0.278475483852735,-0.467556549685374,0.217768053694937
524,524,0.0489175801402136,0.126670983869282,0.948806402444387,-0.00296178904161096,-0.133005869800617,-0.0137340516210891,-0.00550744299733291,-0.142323887036268,0.632322539505446
525,525,0.0489961313766695,0.125319413630078,0.948606932712848,-0.00636189866124582,-0.13332606880102,-0.0108465447113868,0.156460678379182,0.146111237769601,0.653460613720013
526,526,0.0490882994535318,0.124058413996264,0.948465765804318,-0.0106086210454488,-0.124643852592591,-0.00945505077694784,0.0398024726484116,0.366390100261399,0.617622235329219
527,527,0.049194385522233,0.122832245482482,0.948366924447531,-0.0118398982220503,-0.112363819606092,-0.0082691208313348,-0.144702055314628,0.461304829436994,0.419025765049472
528,528,0.0493163333237483,0.121688298474427,0.948281126650653,-0.00868113074336095,-0.0989417554103258,-0.00800066690864224,-0.429184459209465,0.423255928260569,-0.00370867332404718
529,529,0.049455968788997,0.120673984303017,0.948179093555262,-0.00239985380904545,-0.0866957919099036,-0.00924981657729443,-0.629914825989484,0.304006116076842,-0.457586923763301
530,530,0.0496149687585661,0.119836933950156,0.948031419229094,0.00399351197538619,-0.0773201667214013,-0.0126496322638972,-0.590133477402821,-0.0855699908092803,-0.757626413453695
531,531,0.0498089768906646,0.119260557019137,0.947819173927642,0.0161042651355093,-0.0718307766982527,-0.021332394888516,-0.283037644507178,-0.606772445488302,-1.24210909892926
532,532,0.0500362276721146,0.118913952165787,0.947563185879238,0.0248857620335282,-0.0658445953853504,-0.0339746088349136,-0.162176886519244,-0.684587318977961,-1.37109396859041
533,533,0.0502721503633351,0.118673377403724,0.947293093026079,0.0288844832925077,-0.0596512681438131,-0.0469191130437288,-0.205087090398669,-0.755070586780538,-1.32754194540151
534,534,0.0504922682171712,0.118414769148614,0.947037840165543,0.028878817268751,-0.0541877453296024,-0.056764358002754,-0.231855948922546,-0.50039800496297,-0.958970688340242
535,535,0.0506722595576283,0.118013633052189,0.946825641813936,0.0250046566850614,-0.0493142105890436,-0.0600750200849314,-0.247769230405652,-0.0916788609284329,-0.389048008840185
536,536,0.0507976710794334,0.117418141543065,0.946637331464623,0.0239583667794153,-0.0468111394771602,-0.0577015015141619,0.036663364122995,0.406458362028608,-0.270252413339112
537,537,0.0508835210600109,0.11671175825058,0.946454246492698,0.017884152028883,-0.0454685602821906,-0.0508254643377785,0.332178954289264,0.68765803790488,0.318240554448241
538,538,0.0509505383500447,0.115972221231493,0.94630421880364,0.00839565443637683,-0.0447469757193113,-0.0409066397294825,0.362195357605654,0.731231706089443,0.757452339296815
539,539,0.0510204743284404,0.115276865709813,0.946214212382998,-0.00151458668830808,-0.0419600021113534,-0.0291973641182281,0.334809201601692,0.749815180015691,1.16470617319511
540,540,0.0511161021067338,0.114702662474679,0.946210405252018,-0.00844399614031578,-0.0383362342521485,-0.0173078561597342,0.0926625959396057,1.00670000297116,1.4922114000873
541,541,0.0512505944087295,0.114288409492002,0.946308229396957,-0.0104681197974621,-0.031760240082018,-0.00297389354599469,-0.112335180932208,1.20289695963074,1.5024448111724
542,542,0.0514098694428197,0.113982278805325,0.946488776300383,-0.00938747996079143,-0.0224727035639663,0.0139194337780994,-0.196119519166933,1.42431491070777,1.42097131099045
543,543,0.0515765422306275,0.1137248093354,0.946726210085731,-0.00797068281909213,-0.0114865028685922,0.0303819995355376,0.0261295706872438,1.65067701384786,1.28637913127114
544,544,0.0517332237475115,0.113456383898956,0.946994580988592,-0.00733358405999645,-0.00145829442917228,0.0443649822826425,0.267906317576473,1.70885404028314,0.899157332620403
545,545,0.051862473640309,0.113117372644402,0.947267827409949,-0.00840317093151231,0.00499027232723427,0.0532620739588847,0.346763840176142,1.68631969996728,0.412181114282204
546,546,0.0519702623012235,0.112654953470035,0.947568237913439,-0.0130035687472424,0.00692293189448859,0.0556290489183489,0.3708240005665,1.66017481701282,-0.028784630425262
547,547,0.0520688645628938,0.112108356161371,0.947912155752697,-0.019710952908984,0.00550212396944744,0.0530114141175121,0.238771008900051,1.5786362812851,-0.37254074809021
548,548,0.0521501325884101,0.111556232311861,0.948264548025422,-0.0270902552353784,0.00883465620459662,0.0479125392118694,0.0433471646534063,1.06847070061258,-0.629722862673756
549,549,0.0522057908893613,0.111077381877339,0.948590452134187,-0.0343165567906931,0.00156612259618644,0.0405634768718434,0.0511597549731089,1.87254890846399,-0.415516632035936
550,550,0.0522274760437722,0.11075068246697,0.94885506430263,-0.0367048623205415,0.00418023731634955,0.0354547874179931,-0.244674941311046,1.19079733167621,-0.428221290914213
551,551,0.052214902279691,0.110546287968063,0.949058486702618,-0.0348125226452135,0.0115321813496961,0.0315834504592638,-0.183391414029707,1.02430079425691,-0.470420082795553
552,552,0.0521734419806921,0.110412106166755,0.949223970773088,-0.0311786211370453,0.018120819654111,0.0272389455327029,-0.085455227960271,1.04985699498459,-0.345291160608127
553,553,0.0521030794718015,0.110393631570888,0.949351696729,-0.0269779489074933,0.0258868431092953,0.0227293030487775,0.0245036168907788,1.11129101777274,-0.278848702423953
554,554,0.0520036861969401,0.110536179186379,0.949441897553276,-0.0233471795349508,0.0351413454202531,0.0181191991274495,0.139742221934867,1.06552782668481,-0.2425042525248
555,555,0.0518751196910118,0.110884715820799,0.949494829335889,-0.020618286537523,0.0446827284779121,0.0134084860327936,0.177186091049877,1.13197271218533,-0.305801962436236
556,556,0.0517046852973395,0.111481393870018,0.949504095748663,-0.0183262516245815,0.0552102542836105,0.00846882723177633,0.245594232396387,1.12955968638655,-0.354977251751565
557,557,0.0514919127479352,0.112295821372227,0.949471184872151,-0.0161699625252429,0.0665596446420549,0.0033595984203894,0.243917020787294,1.17622863173978,-0.373697215327835
558,558,0.0512552091715323,0.113263987201622,0.949407783928048,-0.0137317897171091,0.0781208126468374,-0.00121338594465668,0.197065046493756,1.14465736537333,-0.373969222143479
559,559,0.0510130481812747,0.114322342978946,0.949324754360835,-0.0113742562488623,0.0898031623874569,-0.00492962675096254,0.131179472084092,0.940533032377162,-0.410084703124766
560,560,0.0507839356776721,0.115407914503089,0.94923198618003,-0.00921288966943083,0.0992543075099785,-0.00772207051041102,0.135164653271713,0.768064462245334,-0.266103472436537
561,561,0.0505654166696986,0.116519400955681,0.949119102368343,-0.00886472547302168,0.105350196942619,-0.00910322874798372,-0.0223926278096335,0.462329565144956,-0.345881628276383
562,562,0.0503448658303633,0.117699315195966,0.948979691827519,-0.00574417433905225,0.108451951636027,-0.0105073902387198,0.108052341258456,0.373577978048178,-0.435077806324269
563,563,0.0501257423427451,0.118950633026768,0.948828858055526,-0.000845923467302811,0.110305552466798,-0.0117067948544341,0.163180782658981,0.449889686479666,-0.46200715708345
564,564,0.0499117264313768,0.120276045240898,0.948681636862201,0.00498621020668764,0.112356885930818,-0.0122846794909472,0.0624641769401342,0.492371616483043,-0.524264710727836
565,565,0.0497067155926422,0.12167798451857,0.948552990640161,0.0111585353705952,0.115191855660392,-0.0123483393467975,0.0373734300740339,0.217700680067043,-0.103936391660355
566,566,0.0495395999154897,0.123234283018133,0.948438875364754,0.0113787674500941,0.120272803195262,-0.00836056504810106,-0.22230306464823,0.721514542003018,-0.340313157820379
567,567,0.0494079758979042,0.12494374261755,0.948329849409457,0.00670607267011888,0.128139316062449,-0.00487962435001326,-0.337701702714151,0.389760807360708,-0.0347031471788937
568,568,0.0492691251024767,0.126689529856257,0.948232160489881,0.000183609108094624,0.133441902506311,-0.000764710904218503,-0.266815392800166,0.28365593245435,0.37256337327907
569,569,0.0490805299810468,0.12835396676038,0.94815127089223,-0.00653079297093341,0.135893856725715,0.00333890914699616,-0.258389286666703,0.092605269614236,0.714031636770553
570,570,0.0487998189778872,0.129818627837326,0.948091961778248,-0.0124362358127315,0.135930748186618,0.00696395074955079,-0.0974141805148379,-0.305416514760963,1.03506585159255
571,571,0.0483167736433351,0.131032177000302,0.948077131115964,-0.0192158217119399,0.127999209560811,0.0105361675599073,0.166056835884575,-0.517258021833174,1.26458962855282
572,572,0.0476603703848675,0.132072368583541,0.948102142212914,-0.0279619116315832,0.11544305159282,0.0147926911162334,0.275757477751094,-0.571794232772884,0.898982678994346
573,573,0.0469967856264637,0.133014470903324,0.948130924656039,-0.0332929190866168,0.103236035217762,0.0181553741418873,0.0877114265569238,-0.365383532575442,0.178067312920918
574,574,0.0464918021019888,0.133934098680685,0.948128529057449,-0.0319761344733602,0.0936520888403047,0.0190920836658752,-0.369671912918129,-0.270984051230987,-0.512825061112644
575,575,0.0463108622808124,0.13490690678163,0.948061102201446,-0.0232198550630788,0.0894622528545296,0.0156246197035957,-0.592581757560443,-0.158505196851856,-1.04318848342243
576,576,0.0465918232058978,0.135984636797765,0.947913416755466,-0.00482766471516003,0.0908335579483506,0.00482042408876649,-0.742322980181452,0.059637011801693,-1.37562407824526
577,577,0.0472241173270402,0.137116470203985,0.947710443322381,0.0217096085186286,0.0946908908541692,-0.0120377962062001,-0.766228365753601,0.243887696851256,-1.45129636552131
578,578,0.0480003144980514,0.138223937179786,0.947478976641032,0.0499511827830571,0.100392765443029,-0.0305552036894451,-0.824876526713336,0.30620519392491,-1.55414808781
579,579,0.0487128565180823,0.139228436237409,0.947245332923044,0.0710327487660298,0.105692570633983,-0.0466576659471765,-0.339106867848886,0.215339833577737,-1.43639974279119
580,580,0.0491540147892031,0.140051414071599,0.947035278526888,0.0789651092844201,0.104639309179973,-0.055874525029265,0.218530342860195,0.0511548451775593,-1.22924794017369
581,581,0.0492504978248633,0.140619538470362,0.946817918491381,0.0676687308003065,0.0920030412435227,-0.0577708357985152,0.732987275902986,0.190154928483955,-0.803120363720888
582,582,0.049139650348386,0.140983291985916,0.94657792912356,0.0400950113554771,0.0722099596592365,-0.0554047564682868,0.963982283863002,0.202198717915388,-0.0707177497461714
583,583,0.0489301211501725,0.141251505141592,0.946363044536835,0.00446266565223102,0.051629452339871,-0.049231028092757,1.01825693807253,0.209679466296623,0.768772087310675
584,584,0.0487314761596702,0.141534909782175,0.94621987209396,-0.0289840332697376,0.0348013240597745,-0.0403465790351814,0.778760287755332,-0.119811415754049,1.41425413275395
585,585,0.0486541789816214,0.141945929743534,0.946193898630896,-0.0492926111525786,0.0244292669226526,-0.0301381374102662,0.586868359599473,-0.676498353260251,1.87145481355693
586,586,0.0487076717076394,0.14250125893523,0.946292180355943,-0.0496225858433532,0.0222772002824918,-0.0159814092583602,0.127059805824443,-1.34633091463599,1.6926381662278
587,587,0.0488185661964223,0.143128881786963,0.946484039677442,-0.0352493746526897,0.0222611391006797,0.00329279386331979,-0.231707575227325,-1.67665156034003,1.42621748601209
588,588,0.0489737809054728,0.143808513918083,0.946756684879638,-0.0136697425244861,0.0233433970504297,0.0243123166372684,-0.405832903724883,-1.87887027596597,1.22171935246177
589,589,0.049160719607632,0.144518932728971,0.947096184897572,0.00743875368642298,0.0255723656281884,0.0429700790281949,-0.294514681350584,-1.96435562696937,1.05038007602715
590,590,0.0493673291867148,0.145238057894721,0.947487614937314,0.0211050478279796,0.0268221147317828,0.0552598959933446,-0.0234314596573888,-1.94732743674743,0.678743409000445
591,591,0.0496218202580873,0.146005447880998,0.947975632959956,0.0237101779454025,0.0251066612912861,0.059968536050416,0.246464161131535,-1.73306889633518,0.371097242059753
592,592,0.0499328210485508,0.146836131572223,0.948567845933103,0.0204959470017781,0.0199657148379554,0.0591968917189807,0.529399825157502,-1.46091226031803,0.0672199961929206
593,593,0.0502592955187328,0.147670166521453,0.949192791604953,0.0137720288513384,0.0130982988174454,0.0553588189069545,0.646800731193142,-1.46839552665158,-0.219810272180499
594,594,0.0505602873966831,0.14844693331457,0.94977871208413,0.00690344607637913,0.00793725935169665,0.0504605233065775,0.673919091840428,-1.57338508852195,-0.538809460831138
595,595,0.0507948942263086,0.14910530541427,0.95025385257084,0.00346180868217271,0.00556396114104524,0.0465267741857744,0.463803952329969,-1.75173037965574,-0.804157629748465
596,596,0.0509331787923469,0.149689902338502,0.950613930996105,0.00450590543940193,0.00663165615871494,0.0439086753602239,0.27820450558762,-1.65045160447123,-0.735055510801207
597,597,0.0510024808463938,0.150240378072722,0.950905592860357,0.00917293029818895,0.010566855077403,0.0414593185104997,0.092258776883933,-1.62328558522618,-0.396787691367915
598,598,0.0510477349753325,0.150688166373003,0.951134081763824,0.0167565062849298,0.0146730137782568,0.0391975983014982,-0.179735914960212,-1.4127694208969,-0.0306813064384169
599,599,0.0511139027246718,0.150964962756266,0.95130503653006,0.0251867643811166,0.0157056721886248,0.0367178973148746,-0.362991031214432,-1.13088440914733,0.101013224720484
600,600,0.0512460904207201,0.151002687374706,0.951424315181275,0.032633115996,0.010700540821115,0.0333650010857848,-0.420805113728906,-0.813997349465275,0.0320629938881446
601,601,0.0514856079163309,0.150757097739851,0.951489771149887,0.0377613319037376,-0.00170247160319231,0.028555601356987,-0.334196955878863,-0.54576808524651,-0.209907554706463
602,602,0.0518020903962173,0.150273828777348,0.951499684454763,0.039350678292671,-0.0190462918409051,0.0223055190313941,-0.0239132058209411,-0.417633734412158,-0.323442857942254
603,603,0.0521333277221553,0.149619706289375,0.951460400212803,0.0377236689552169,-0.0381880137907808,0.0152600159036103,0.281618439381483,-0.401418798336381,-0.503989084753887
604,604,0.052417160577744,0.148861461244422,0.951377771231223,0.0337205516943199,-0.0544521127821559,0.00822114628864327,0.500571992695338,-0.405020330345584,-0.605755641504537
605,605,0.0525914848512854,0.148065728972828,0.951256935439959,0.0278960621814307,-0.0661518600484855,0.00179451332508035,0.576363224294712,-0.313393580617883,-0.632318247758893
606,606,0.052620711454206,0.147216115407366,0.951081670828341,0.0204884548453975,-0.0725927689937499,-0.00413866830575498,0.526903743020908,-0.30545539906146,-0.651998604887373
607,607,0.0525459953476716,0.146269122703932,0.950851091978804,0.012421607191609,-0.0754786480758632,-0.00987272826092549,0.371357032365733,-0.321416879489668,-0.536717739076551
608,608,0.0524205284117152,0.145250137075872,0.950591614706863,0.00526264575578047,-0.0762412015662893,-0.0149014103847131,0.221544827271499,-0.39015283110383,-0.399294899691805
609,609,0.0522976862601108,0.144183609485358,0.950328067923214,-8.08919687020809e-06,-0.0762704008733097,-0.0187253650547468,0.0526950722599555,-0.501787442763945,-0.26879037998306
610,610,0.052231028581169,0.143093015394711,0.950083682812935,-0.00182352702204057,-0.0792466164015814,-0.02085811288902,-0.10038367084568,-0.692748770935636,-0.192852785737768
611,611,0.052206851794191,0.141982696216082,0.949838218523515,-0.000247170111940195,-0.0878003969807567,-0.0211478297628129,-0.23860585084183,-0.692847641656772,-0.144213496109717
612,612,0.0521896999925361,0.140835622815173,0.94957506412834,0.00328645805857478,-0.100834296956384,-0.0201275977811301,-0.352423325057388,-0.537637658110478,0.0420946758795428
613,613,0.052200659683645,0.13964325096035,0.949321775285895,0.00668321516681385,-0.113382953751425,-0.0179124090165349,-0.608501514609922,-0.705268020596442,0.0713778882138043
614,614,0.0522607999322867,0.138397844814385,0.949105888055357,0.0113663428756061,-0.121838463115275,-0.0146031897515633,-0.614113352898001,-0.585853646473539,0.140961178029679
615,615,0.0523911544896676,0.137092370399214,0.948954973569978,0.0139634536419052,-0.125960039351346,-0.0119035916045514,-0.500596303718335,-0.413150709334634,0.387614995179294
616,616,0.0526327512359228,0.135618670773361,0.948902105603967,0.0156241172477463,-0.127040233639858,-0.00885655099611359,-0.256896344990056,-0.0495283674322489,0.470402341136696
617,617,0.0529719036417946,0.133982139367883,0.948928569582792,0.0158156275018706,-0.129035473797274,-0.00496110274388889,-0.0404700307263399,0.294200306004552,0.369050182907897
618,618,0.0533474560710177,0.132346274465013,0.948983945480445,0.0124266906935691,-0.129478650247309,-0.000834943435301236,0.262782230022055,0.282856440530297,0.207035168567269
619,619,0.0536980384436129,0.130874270855471,0.949017340790546,0.00786777478992274,-0.126253118434821,0.00233791007876071,0.0143524506364074,0.408835364754955,0.116435497368854
620,620,0.0539620362862365,0.12972910534251,0.948977569769833,0.00742116906669947,-0.121501985230013,0.0029787222735492,-0.193874069465808,0.18610623387479,0.0470992683663731
621,621,0.0540891637646916,0.129057844652107,0.948837029791445,0.00909446495643651,-0.113828097527741,0.000263383513425364,-0.35184651132551,0.174166451761796,-0.167549613701611
622,622,0.054120208736771,0.128751594727837,0.948629604464328,0.00987325909013467,-0.100864992628026,-0.00520071115291969,-0.343787789566587,0.0451712760529693,-0.32084170894114
623,623,0.0541300575994698,0.128589353078208,0.948396653206549,0.010583664271114,-0.0863563744678232,-0.0121272645927231,-0.334237738933603,-0.197029521261207,-0.572890225574495
624,624,0.0541936852647732,0.12835029046588,0.948179591753887,0.00919472596793321,-0.071947093408457,-0.019162100601424,-0.169294774778399,-0.344954422491061,-0.57067602868048
625,625,0.0543860596644793,0.12781378364974,0.948019715442273,0.00786536984775679,-0.061867517030317,-0.0249964148806159,-0.234975974872217,-0.519219142536062,-0.534980303904355
626,626,0.054763324366991,0.126861463333454,0.947930448556423,0.0160717899905268,-0.062682230725092,-0.0309207803243138,-0.256219773556103,-0.588311501273029,-0.952217187706827
627,627,0.055274720622402,0.125640599465575,0.947886216986613,0.0245898852664481,-0.0687263247644839,-0.0367469799311701,-0.314416962986159,-0.413974168623355,-0.937540919777794
628,628,0.0558348473148054,0.124329294546359,0.947869083810608,0.0337612284703767,-0.0815604111209707,-0.0408788639803372,-0.31010753239275,0.192595605585008,-0.918962381195923
629,629,0.0563586027737787,0.123105850947009,0.947859899810431,0.0403315289138029,-0.0922985237014034,-0.0421876578884273,-0.18773682431191,0.615341756866178,-0.569112720002238
630,630,0.0567613277634115,0.122148733999177,0.947838214227023,0.0409629072158612,-0.0927471744087287,-0.0397328415015976,0.117376907463271,0.820159313736674,0.146444188545772
631,631,0.0570062285806226,0.121501862721504,0.94777553380682,0.0433404631788766,-0.0824394090293222,-0.0344313135635018,0.504086784309032,0.702074031680533,0.28520336075579
632,632,0.0571489768016123,0.121047226775623,0.947685303266677,0.0425746193354095,-0.0631171764589001,-0.0260600348603855,0.398820728575273,0.562856851791992,0.569835205172785
633,633,0.057244591665232,0.120720083604604,0.947608294528256,0.0388945801147393,-0.0405630449243708,-0.0159896015368704,0.294440329803608,0.584120811714315,0.903895655865774
634,634,0.0573489445931512,0.120455154645417,0.947584295416694,0.0350853647756081,-0.020666476290249,-0.00514263847423738,0.0376149768218162,0.710564033746826,1.09515745219924
635,635,0.0575187166748089,0.120186620799815,0.94765229294814,0.0300085789038435,-0.0071224873242975,0.00577823102280208,0.0139247091060555,0.99542847425054,1.10248248323011
636,636,0.0577824383066186,0.119965807227318,0.947839762785765,0.0227787716198757,-0.00102508001194867,0.0169736407696158,-0.0245086425736035,1.33197710443141,1.03682753582804
637,637,0.058103540641281,0.119836263543816,0.948119206384664,0.0145696917891796,0.00163278783878547,0.0292361306755896,0.0879302660696364,1.57748289562645,0.983070818293112
638,638,0.0584415325956725,0.119719576628987,0.948446284221651,0.0045183699056893,0.00135864817558447,0.0411965276402059,0.335010878047407,1.6934367400862,0.849743485800854
639,639,0.0587557511128863,0.119536948968092,0.948776014562251,-0.00664278034690511,-0.00189451403161039,0.0504962676130164,0.520972375323757,1.6540296327808,0.646311012603866
640,640,0.0590053060314134,0.119209598255122,0.949062976871088,-0.0161716170485886,-0.00457747989558095,0.0549579506762257,0.612114660197863,1.48025643856363,0.26398162205779
641,641,0.0591627489786712,0.118628387853778,0.949325490799552,-0.0223987101683883,-0.00437057708081662,0.0540034761881936,0.639526912976921,1.14267648040279,-0.166700021863343
642,642,0.0592556066724751,0.117845710590654,0.949592709347629,-0.0255551090586847,-0.0153339708891732,0.0489012627881492,0.125282666111248,1.26211151655299,-0.299629513532892
643,643,0.059325208521966,0.117025591538863,0.94983570028302,-0.0267022257027617,-0.0205363096025755,0.0415832971150141,0.237635363132989,0.920593840915486,-0.570986631092285
644,644,0.0594127905357841,0.116331966210448,0.950025815969478,-0.0247694158486802,-0.0243629469931787,0.0333042313774755,-0.0617955707674186,0.991861054644422,-0.672352365119364
645,645,0.0595595694716254,0.115928272394588,0.950134528114762,-0.0203292545413989,-0.0209848621122915,0.0254324371908409,-0.159433065717571,0.932734561152808,-0.836094818838164
646,646,0.0598125608270803,0.115797396970037,0.95015412391366,-0.0129132070356342,-0.00980190837824202,0.016970664963527,-0.238500184782292,1.01367597007863,-0.970066577701469
647,647,0.0601436990352954,0.115831106881912,0.950105468914845,-0.00311686549188703,0.00764449606710947,0.00708783557874816,-0.146675616355814,1.20164809671299,-0.969003184179765
648,648,0.0604816657675336,0.116055295245337,0.950002410950727,0.0056070490498577,0.0269295211226325,-0.00300067837048301,-0.111166174153881,1.31294969267337,-0.811006433420415
649,649,0.0607552709663188,0.116495457617582,0.949857850146353,0.0112243250919105,0.0442884095508932,-0.0121706201033602,-0.012649897254722,1.4013620129909,-0.54781970086939
650,650,0.0608935437308976,0.117176734965416,0.949683556282977,0.012758866864523,0.0583319821147227,-0.0189376921230058,-0.0812869783828543,1.19795112329734,-0.40357006604673
651,651,0.060869162139557,0.11818210072723,0.949454408274576,0.0105705200765198,0.071003554162347,-0.0236413220161551,-0.140795249822821,0.974404872314596,-0.30337284940616
652,652,0.0607291242117028,0.119494236108943,0.949162854227223,0.00566337289474693,0.0841989370419158,-0.0272606905569341,-0.231217280637139,0.67083656289057,-0.205481773079062
653,653,0.0605143281522825,0.120987675433813,0.948846191551834,0.00042863627491399,0.0979839719506411,-0.0292328478527429,-0.309124611280592,0.334806100127886,-0.0746651271471054
654,654,0.0602658263389254,0.122537015555605,0.948541645372727,-0.00365387199815767,0.109554595643522,-0.0293004992816756,-0.244435041902603,0.0927110677131307,0.0217840845635989
655,655,0.0600247936461857,0.124016950168359,0.948286344811716,-0.00446630877738914,0.117988353875849,-0.0269751070080188,-0.157090693745187,0.0254743775096357,0.0495802531145805
656,656,0.059774296245022,0.125504501209588,0.948055881859233,-0.00167531966387028,0.123197064645759,-0.0213829851182095,0.00584415357654858,-0.0641172869244204,0.197213269647669
657,657,0.0594871067239142,0.127083131803762,0.947826402881432,0.00352881148725702,0.126446298722008,-0.0120210446476044,-0.0268745308181304,0.257388915360673,0.160626365915652
658,658,0.0591891707068383,0.128637085122637,0.947635069570309,0.00763697804388017,0.126297324323456,-0.0021639164189593,0.0239583617414322,0.153773948584968,0.586199980338532
659,659,0.0589065410093935,0.130050263672682,0.947517984060249,0.0117613392405926,0.120192078908874,0.00667384674183924,-0.0356816088333897,0.355430545670605,1.12152716131887
660,660,0.0586653564674025,0.131206277126734,0.947510297184016,0.0138198636950845,0.110802686520854,0.0147286130179093,-0.321032316994077,0.142782153062634,1.60804860821953
661,661,0.0583993935451771,0.13201439588735,0.947669904142973,0.0117133947734141,0.0949208941800388,0.0234898815685077,-0.473240152233493,0.000254672912940557,1.80050900443526
662,662,0.0580919620876457,0.132551583060276,0.947971654012998,0.00521831698054917,0.0741228577670082,0.033255755520922,-0.237068746911612,-0.143689250047502,1.60555700254885
663,663,0.0578432927644302,0.132953090033685,0.94832651674471,0.000345542696670407,0.0567010459230134,0.0410927399431774,-0.222228610129558,-0.167733472425503,0.79310530530466
664,664,0.0577531953418692,0.133354361179677,0.94864670649275,0.00185333282564751,0.0453225294652968,0.0445399426661987,-0.560114759974987,-0.0487009804195131,-0.258984331563318
665,665,0.0579210779447644,0.133890873042474,0.94884572033783,0.0101773615598172,0.0432968810705597,0.0408133437764718,-0.722474835535034,0.0246014619357272,-1.27702319222246
666,666,0.0585351182883658,0.134618600196776,0.948927901477463,0.0212166624216473,0.0546711585340521,0.0263295165331749,-0.95983214717032,0.226466118420976,-2.01983065935876
667,667,0.0595289009331943,0.13544712553692,0.948953621818434,0.0375260134835821,0.0697238990199373,0.0024229422457416,-1.01393770847228,0.523521416536187,-2.29471988542098
668,668,0.0606196181286926,0.136292191134682,0.948921222719127,0.0567768994818702,0.0842114992036666,-0.0247604826975331,-0.977439237957587,0.576348432745585,-2.50254255100635
669,669,0.061524269540021,0.137069455620081,0.948828937191891,0.0721553451724265,0.095352458594738,-0.0494488447523329,-0.466423600294201,0.390882407893795,-2.37462294386011
670,670,0.061959618703959,0.137694654526683,0.948674776676826,0.0759132064182183,0.0997753627200064,-0.0659445767043301,0.208916468903557,-0.0945851408536865,-1.91815141076989
671,671,0.0617924101828207,0.138128213549937,0.948402213323662,0.0540626982208212,0.090973832703003,-0.0745916957958728,0.758515174830134,-0.348515938916776,-1.57749009666472
672,672,0.0612103563979283,0.138425761411308,0.948016526747413,0.0122559239821737,0.0679503136430801,-0.0792468980430964,1.12606438350074,-0.0968802054512119,-1.0031020123127
673,673,0.0604118692069439,0.138646855364558,0.947606335289438,-0.039900484235923,0.038516098949362,-0.0789667340585933,1.29991350693423,0.255374081457741,-0.302437995461243
674,674,0.0595960683896353,0.138851919065558,0.947257777507341,-0.087619258840924,0.0139992708950607,-0.0743399264508038,1.05452494070227,-0.0263875952718483,0.64709845650038
675,675,0.0589628675500815,0.139102056190761,0.947054546667723,-0.116365585160762,-0.00362043584694031,-0.0652529664515374,0.898346664865924,-0.532738381947639,1.67848308401492
676,676,0.0584693669745588,0.139384103277546,0.946991632577977,-0.116286031004297,-0.011392949401114,-0.0480708411827121,0.526783991435626,-1.16784253191612,1.87681320425285
677,677,0.0579823040019875,0.139659544102,0.947012008975929,-0.0940959734887498,-0.0114723781227131,-0.0227355264773788,0.0763743144328118,-1.54140029396372,1.79741244113072
678,678,0.0575668875419913,0.13995124817099,0.947118899376511,-0.0591071303801196,-0.00862150879797908,0.00635940433787005,-0.385076075235203,-1.68616644374801,1.65430957540998
679,679,0.0572888433492879,0.140281131424709,0.947314437897633,-0.0239999618324207,-0.00487916323409463,0.0336065668580405,-0.395671123138282,-1.76644424438286,1.5415481352436
