,Frame,CoM pos x,CoM pos y,CoM pos z,CoM vel x,CoM vel y,CoM vel z,CoM acc x,CoM acc y,CoM acc z
0,0,-0.158264455939095,0.258622985200629,0.952515330575674,0.00962580871774236,0.002346575292694,-0.0228553331063582,0.000661628272780977,0.0204512212546644,0.028840055623389
1,1,-0.158005405691594,0.258483887071768,0.952441101024174,0.00984025631788567,0.00172341932144446,-0.0222488875713036,-0.0238384408039101,-0.0185759456713093,0.0609959126043919
2,2,-0.157744124978072,0.258345048761071,0.952357691737267,0.0100434290686306,0.00161052411368231,-0.0216429404809335,-0.0338145576504016,-0.0599816656672647,0.0588896523129041
3,3,-0.15748396397542,0.25820607893627,0.95227890234856,0.00972778759089772,0.00102038699662403,-0.021017891899278,0.0146510478851767,-0.0286932540442621,0.0893901612120643
4,4,-0.157228271877782,0.258066586206826,0.952218528810901,0.0100075235901486,0.000590948962769257,-0.0204450486444473,-0.0226559146485148,-0.0735325456729165,0.0735956889396171
5,5,-0.156980397040176,0.257926179128883,0.952190363871247,0.0102462865931401,-0.000587520621662767,-0.0198687488645052,-0.0605193150269897,-0.022060560231479,0.0474579848193326
6,6,-0.156737154158646,0.257786340351214,0.952206386509943,0.0106894105097191,-0.0013431675515829,-0.0193652469118799,-0.033504277510566,-0.0498168901491797,0.0592360202105074
7,7,-0.156496309146145,0.257647330649145,0.952257394540649,0.0112948166301833,-0.00212128860751541,-0.0188956862588632,0.0215356895868903,-0.0678597837675616,0.0452929675733911
8,8,-0.156262637467313,0.257506925872795,0.952325409582143,0.0119188374291526,-0.00268462884755849,-0.0184479409197541,-0.052751409041173,-0.148047889320547,0.0607320277838702
9,9,-0.156040915408487,0.257362901998017,0.952392456202053,0.0125197333734956,-0.00323917654331,-0.0179843234313283,-0.0251062896977355,-0.164318732674034,0.0680108549869819
10,10,-0.155835919882805,0.257213035003895,0.952440561484567,0.0126412512832281,-0.00441975048403172,-0.0175038486529621,-0.054597060118765,-0.132741779103432,0.0897578744366326
11,11,-0.155653881283488,0.257057175082848,0.952468160944265,0.0116033589067164,-0.0056744261207981,-0.0170105459643306,-0.0274377836421392,-0.172847836753764,0.0778729971423085
12,12,-0.155491615515901,0.256896804247126,0.952487240712335,0.0103562087225661,-0.00731910479730928,-0.0165200859687576,-0.0346457853467016,-0.177536807860089,0.0689645207510496
13,13,-0.155339778043412,0.256732146533553,0.952500152203279,0.00876218996927904,-0.0093461199676774,-0.0159928045286778,0.0111350041237329,-0.11078169191594,0.0993315919180342
14,14,-0.155189024362327,0.256563426743348,0.952509242650634,0.00772583685174893,-0.0112779502757876,-0.0154596056991483,-0.00642208736635077,-0.124603734721644,0.0688554829447785
15,15,-0.155030009980051,0.256390870573052,0.952516855476704,0.00727153438799752,-0.0130014806014577,-0.014892855954395,-0.0107048610259796,-0.143303684614296,0.0822481644255773
16,16,-0.154863265933386,0.256219210282825,0.952522466124646,0.00742511147587162,-0.0140574974373504,-0.0143242569222051,-0.0300809997265505,-0.158422477930123,0.0825738888305729
17,17,-0.154695021678588,0.256048296317832,0.952524507669558,0.00839965603914041,-0.0151875612445438,-0.0137272642704377,-0.0726983334155572,-0.173550868609517,0.0808663478549378
18,18,-0.154524480523251,0.255871032399924,0.95252375739436,0.00963746604335311,-0.0161678661058944,-0.0131263743616143,-0.0679018314158951,-0.1676840817687,0.0636873149775216
19,19,-0.154350846026558,0.255680322150564,0.952520991905525,0.0109781315468794,-0.016849118834442,-0.0125296989393087,-0.0470090589365652,-0.181763843675925,0.0937771278692058
20,20,-0.154173322116344,0.255469069249614,0.952516987080542,0.0120276532317575,-0.0179400735662216,-0.0119620533116743,-0.054882696627776,-0.194215298000792,0.10193743525426
21,21,-0.153988373008313,0.255231563535359,0.952512622175366,0.0131343986507914,-0.0187972419330988,-0.0113392706284501,-0.0311006850242047,-0.140804274824978,0.0949087213913107
22,22,-0.153796530236578,0.25497253793671,0.952507376058841,0.014315115632697,-0.01956690927303,-0.0106445096039087,-0.00134515881271399,-0.175737550060915,0.0859452501257919
23,23,-0.153603099055675,0.254700560770888,0.952499924766657,0.0154108314351075,-0.0205090355475577,-0.00996189989676082,0.00287831168607258,-0.145971665575503,0.103591804580492
24,24,-0.15341338425897,0.25442419936959,0.952488945247473,0.0161855972810515,-0.0216414403391348,-0.00937114723662142,-0.053363592163543,-0.109673346952338,0.0973091372285822
25,25,-0.153232690168673,0.254152019766811,0.952473115140921,0.0166772779714364,-0.0221899031069533,-0.00895964725718833,-0.044586336786626,-0.16888314777656,0.0814657531638943
26,26,-0.153060599934568,0.253886061236186,0.952458441427365,0.0163160851546169,-0.0227888635259641,-0.00881404508492255,-0.079975485454808,-0.0934592598053658,0.0782191223006629
27,27,-0.152893578280273,0.25362061267787,0.952445806160391,0.0149172678881358,-0.0227601905975332,-0.0088804452323358,-0.054008679755649,-0.135120718096443,0.0765395912394984
28,28,-0.15273225060576,0.253352613732175,0.952426199695695,0.0135793136319076,-0.0225173794063939,-0.00903035124097252,-0.04268974440854,-0.0399952949695155,0.0114233111996507
29,29,-0.152577240760641,0.253079004506217,0.952390611659291,0.0119823378174454,-0.0223328295093325,-0.00916140365041685,0.0147298671271195,-0.0650259557614878,0.00631555929121913
30,30,-0.152429171091097,0.25279672567429,0.952330030710834,0.0107988990326361,-0.0220063728030667,-0.00908692293260439,0.00802655339708555,-0.0332985688316418,0.0223925351793491
31,31,-0.152289903059608,0.252501766822359,0.952228831956979,0.0107843825792538,-0.022050561311877,-0.00880771928179575,-0.0218378833371758,-0.0144939312348926,0.0381996913283676
32,32,-0.152159018246254,0.252196167647413,0.95209302020902,0.0115122727441033,-0.0221772441917648,-0.00839218489437866,-0.0445433490958287,-0.00146742027655194,0.0406783263087427
33,33,-0.152033719822316,0.251885944117379,0.951946029691794,0.0121060647285903,-0.0224233947456986,-0.0079324817440424,-0.0302992062082022,0.0135139173403774,0.0724781035657324
34,34,-0.151911212914231,0.251577112078569,0.951811297377216,0.0126177205815082,-0.0226560557863045,-0.00750038368339317,-0.0366915388217816,0.0160257156230198,0.100946225681679
35,35,-0.15178870448037,0.251275687337194,0.951712263045716,0.0124884678203075,-0.023161023294665,-0.00714286379978478,-0.0215176797933754,0.0258733760545239,0.0865834739898747
36,36,-0.151661090632689,0.250979678441097,0.951655013621975,0.0120542644603101,-0.0230860402212491,-0.00698537920678709,-0.0251411810463402,-0.0532045592609019,0.0592183685825729
37,37,-0.151530234767942,0.250685074426927,0.951623926738316,0.0115453603254798,-0.0234487958505981,-0.00694031215615969,0.0337325159876249,-0.0245594398402494,0.0589455605495253
38,38,-0.151403796720463,0.250394862048659,0.95160987951992,0.0111413347510296,-0.0239264920470618,-0.00690398571554257,-0.0326075910272074,-0.0695344207265463,0.0234027927991636
39,39,-0.151289437210618,0.250112028144647,0.951603748041181,0.010724780282051,-0.0246341089052979,-0.00681904335850197,-0.0354841470419834,-0.0380681527988803,0.00750445085617132
40,40,-0.151194818051672,0.249839559957469,0.951596407764441,0.0103927685820378,-0.0250245312565882,-0.00659531169364262,-0.0440061744653104,-0.0753743128328236,0.03501641053565
41,41,-0.151130525699003,0.249584865301641,0.951587622196504,0.00993218135634772,-0.0247925215739118,-0.00623373279939531,-0.0583381706972375,-0.0790740021436777,0.00471273160289224
42,42,-0.151091455057111,0.249345952952179,0.951583477621078,0.00925090342403728,-0.023774012805972,-0.00579372033134726,-0.00769636025407433,-0.0869604450431606,0.0442817255493091
43,43,-0.151061733599534,0.249111714576482,0.951584333623737,0.00819611528632267,-0.0225117541007207,-0.00526511279758909,0.0332037856419101,-0.0811183208271318,0.0572941124217398
44,44,-0.151025491684211,0.248871045455805,0.951590550336926,0.00755232495926369,-0.0214892399657771,-0.00466824822396797,0.0201053069216864,-0.102545747383656,0.0704719518628717
45,45,-0.150966862806055,0.248612844126251,0.951602489708016,0.00718241531623962,-0.0215353799757288,-0.00399032232062631,-0.0401635311365149,-0.155380322026391,0.168982711637612
46,46,-0.150872867146758,0.248348638351199,0.951620935323329,0.00741979266621731,-0.0226945669396256,-0.00308498668296452,-0.11177772559675,-0.183907046914808,0.147719472968912
47,47,-0.150754095048821,0.248085837461692,0.951645652508641,0.00807885794446639,-0.0249763390448233,-0.00194491130176348,-0.148390818973964,-0.2015216792497,0.16111284764736
48,48,-0.150630037360303,0.247807164913569,0.95167548549102,0.00900546958742562,-0.0278996469125248,-0.000816205747992801,-0.162373807176915,-0.216112356346042,0.128753089225293
49,49,-0.150520184105511,0.247495346485278,0.951709291371789,0.00948050829642882,-0.0312219719515141,7.74661992770822e-05,-0.164549007810641,-0.218039030709845,0.110567990153931
50,50,-0.150444024562864,0.247133110197182,0.951745945650045,0.00948256731743491,-0.0347703683998424,0.000535020702586653,-0.222950473385074,-0.272623758319385,0.0594638361039867
51,51,-0.150401294568843,0.246718593387344,0.951786247023472,0.00783671555642023,-0.0385273764679478,0.000506047652100925,-0.169979529755555,-0.239711667264633,0.0575915838851178
52,52,-0.150379018599554,0.246263324201381,0.951831023907027,0.00510870188990098,-0.0425266929626303,0.000118736205588411,-0.196776289266297,-0.265767648099882,0.0427373039650702
53,53,-0.150377614159958,0.245770116142707,0.951879207748496,0.00170488965852972,-0.0466727613906353,-0.000525248383323017,-0.192471108423975,-0.26372987445372,0.0257994121697354
54,54,-0.150397491944034,0.245241780718946,0.951929715817772,-0.00215252677941772,-0.0511715738371631,-0.0012513496754183,-0.158320984201516,-0.334798167062205,-0.0314275606540401
55,55,-0.150439054827424,0.24468112790132,0.951981446620646,-0.00555164155276143,-0.0565010073931114,-0.00198865389236336,-0.131495295402123,-0.36032350588202,-0.0468292339313879
56,56,-0.150510322458492,0.244094654123187,0.952028898604942,-0.00862805862437149,-0.0625608588458404,-0.00284083985357465,-0.141065553727037,-0.375977745231715,-0.0261989704901287
57,57,-0.150611017112572,0.243480474705431,0.952072872726265,-0.0117028336965572,-0.0693687468649732,-0.00386066027759132,-0.15982625748428,-0.431195115406627,-0.0577637244322725
58,58,-0.150729102799124,0.24282885500693,0.952121712426386,-0.0143557362074628,-0.075698216681157,-0.00490408338815451,-0.157454270624195,-0.532678489125605,-0.0192851421785646
59,59,-0.150852562197835,0.242130101660625,0.952183776276737,-0.0161145844224843,-0.0819770072797961,-0.00580379709013958,-0.17723472444959,-0.518532644555314,-0.0573425752158495
60,60,-0.150969398361871,0.241374571501646,0.952267449828111,-0.0172326784363618,-0.0869854017849788,-0.00640955570492738,-0.132970546620651,-0.541865576484406,-0.0391520124488763
61,61,-0.151093231907406,0.240539433999774,0.952391549287451,-0.0166077732343618,-0.0908585388984698,-0.00657239456778284,-0.169600420333973,-0.567051337063092,-0.0219008718235355
62,62,-0.15123211600354,0.239631227940992,0.952550607369874,-0.0148290499558601,-0.0943443342388514,-0.00639372319606281,-0.110383608401295,-0.492021949801895,0.0195427375155013
63,63,-0.151365707078792,0.23868444144931,0.952716677354973,-0.0124380219178894,-0.0970552056407263,-0.00602082533118948,-0.072052374845471,-0.437447228258254,0.0231448131090384
64,64,-0.151473640629129,0.23773361261987,0.952861915052393,-0.00986059980630701,-0.0987083775521137,-0.00565986333889626,-0.0824078009675078,-0.355645364390991,0.0917750451234599
65,65,-0.151535526485498,0.236813338318226,0.952958612869801,-0.00694029003386752,-0.0986655756757539,-0.00546593001162229,-0.239861126083127,-0.271881895180647,0.143013911164084
66,66,-0.151543387808113,0.235903074829344,0.953005175244883,-0.00181952636862869,-0.0988695290641062,-0.00527089272996717,-0.388899893731144,-0.259190696546787,-0.131654714999
67,67,-0.151510806685325,0.234980143277591,0.953020694130019,0.00214157100526776,-0.0981466683234263,-0.00488429440845124,-0.503552604263186,-0.138168124053535,-0.302103141104969
68,68,-0.151449730674919,0.234075910756203,0.953008624452504,0.00387926595093161,-0.0960048967581805,-0.00469991278511363,-0.445948951185163,-0.0542281029130002,-0.244580899034504
69,69,-0.15137214496763,0.233221617891331,0.952972415919096,0.0034498146699856,-0.0908358263444921,-0.00499436499415694,-0.451885886371265,-0.0130923332340508,-0.22887119968067
70,70,-0.151290079041215,0.232448352606434,0.952915502368936,-6.7037892342388e-05,-0.0834304557942366,-0.00611461867034116,-0.376860400715964,0.0832909628460799,0.00848098425119958
71,71,-0.151184593416279,0.23173491081501,0.952835413368255,0.00050460012914512,-0.0753201956841811,-0.00927560937895979,-0.141951453479102,0.0770947634035498,-0.178413278774966
72,72,-0.151047808221441,0.231060752807568,0.952730989180697,0.00179762604119905,-0.0649542107627692,-0.0140697927249981,-0.0605492332039168,0.067832753939793,-0.315799121061122
73,73,-0.15090835760187,0.230457670956877,0.952607255437931,0.00240107382699371,-0.0533969083273472,-0.0192110362904603,0.0725977827786256,0.100429170892416,-0.402364286046997
74,74,-0.150794833741854,0.229957223133172,0.952468686615575,0.00274435813870328,-0.041571816440199,-0.0236225094149569,0.157617235616835,0.182309444206186,-0.389859935926092
75,75,-0.150735763693241,0.229590753977075,0.952319162279477,0.00229507853036752,-0.0304288118797414,-0.0261742455034179,0.321580347401267,0.213889297405224,-0.292609314885451
76,76,-0.150743741084062,0.229392929349141,0.952159740750467,-0.000339169657607933,-0.0198240853311355,-0.0269509637652793,0.375660702752317,0.227595428396898,-0.166982889442397
77,77,-0.15079985727861,0.229342473149312,0.951987972713831,-0.00367787073274122,-0.00920686059389661,-0.0267282856370385,0.341019260739831,0.375401752900401,-0.093643087812982
78,78,-0.150885207729173,0.229386707060012,0.951801544583855,-0.00783361509115121,0.00188648709416087,-0.0253700406114198,0.230265036317236,0.499606095488377,0.0297922461961064
79,79,-0.150980731514704,0.229472993060891,0.951597505847112,-0.0121967741213441,0.0128407987695535,-0.0228485954646625,0.240736532617554,0.64205324673339,0.256199981170975
80,80,-0.151067220896956,0.229548747302067,0.951372355829439,-0.0159009280906698,0.0229496588084599,-0.0191700761887204,0.222232342595682,0.763160804671925,0.419837022985034
81,81,-0.151174707355371,0.229623863788445,0.951107278372877,-0.0181048142726809,0.0334826168433706,-0.0131812371485252,0.274611493315185,0.926091299017648,0.526276374639253
82,82,-0.151315729346299,0.229733297779062,0.950803460024084,-0.0191798717576602,0.043904602234003,-0.005097153271467,0.222112855776117,1.04940112382996,0.529898274823728
83,83,-0.151444725518135,0.229862000159689,0.950487035791086,-0.0193089402954754,0.0537505753888369,0.00355115572509249,0.23414390439133,1.17253453387414,0.601137979054944
84,84,-0.151516134915421,0.229994822582127,0.950184120822891,-0.0193085558348788,0.0632186687212732,0.0114159822010654,0.24509705743954,1.15192609043016,0.648059994951547
85,85,-0.151484438104462,0.230116572042984,0.949920863112791,-0.0187861428244501,0.0708079103232842,0.0171113975081499,0.218788337972976,1.15294433381091,0.557858308887914
86,86,-0.151313875111155,0.230184829695958,0.94968765935093,-0.0177445931011091,0.0771571636153342,0.0205102323911592,0.196999980598736,1.02660572611391,0.406648765502443
87,87,-0.151034767264804,0.230209714784873,0.949466546348085,-0.0166583719846807,0.0828416490450366,0.0225264530440619,0.183226238509274,0.985537675901905,0.3091368243429
88,88,-0.150700830640227,0.230254883170655,0.949271279866618,-0.0153837100402003,0.0875527364267509,0.0233717254799863,0.118090965473052,1.01418556672738,0.123557308031712
89,89,-0.150365819989924,0.230383994312101,0.949115691244979,-0.0128621784839793,0.0922627518714958,0.0233139731804281,-0.0255786128649392,0.977005275709952,-0.10007145523199
90,90,-0.150083493153976,0.230660669760669,0.949013647895435,-0.0091854241568706,0.0968025069765727,0.0225858162171106,-0.0399767166110616,1.0130866546451,-0.267895144833249
91,91,-0.149852082080134,0.231052901507607,0.948986804751397,-0.00392498869033976,0.100495686126807,0.0208026191243611,0.10948473681537,0.994819285993835,-0.660156647406224
92,92,-0.149636121032212,0.231518694394757,0.94902628828464,0.00255047207825206,0.10408098780777,0.0179208569051423,0.191898306522602,1.02731082129976,-0.718704650405978
93,93,-0.14943875116,0.232106547412167,0.949100187708342,0.00909625348163532,0.107344047658009,0.0143611828882611,0.199530234035085,1.07653935654066,-0.649853614381683
94,94,-0.14926302303196,0.232864777794501,0.949176534861987,0.0161274246584318,0.111233130522143,0.0106643420464551,0.118561223794538,1.11566823633407,-0.474472220296891
95,95,-0.149111869588906,0.233841476826042,0.949223250229843,0.0217919606264931,0.116285282145068,0.0073792228452153,0.0445678858569143,1.09816458655809,-0.188293652101775
96,96,-0.149003618649646,0.235120319470984,0.949230655973409,0.0207159561348427,0.123202675728557,0.0052071713258126,-0.100822121861398,0.942791410746662,-0.0801552418072822
97,97,-0.148936539549768,0.236669358869311,0.949220933886263,0.0164622994743212,0.13175288381287,0.00324373458661764,-0.11104401841763,0.848898480773988,-0.0723709691724265
98,98,-0.148883254755565,0.238362958323792,0.949209433631516,0.0108556906997777,0.141868786670621,0.00156269385145642,-0.0295966001891897,0.683844496219034,-0.167176828903035
99,99,-0.148816236523382,0.240075320009865,0.949211088086762,0.00579821546955119,0.151162611748727,0.000265364185793198,0.0454858760801813,0.638906065220021,-0.21619547439613
100,100,-0.148707809859051,0.241680492382309,0.949240388359654,0.0036263194050365,0.15870403967524,-0.000733155395148794,0.027651842755073,0.504723580345051,-0.286437193223419
101,101,-0.148516474271099,0.243165946470983,0.949294501512095,0.00587753138787768,0.165237386766049,-0.00184885804222593,-0.0676774170038916,0.343237523028526,-0.204104758313014
102,102,-0.148260494838373,0.244615368579573,0.94936383519027,0.0115884818321073,0.170618924003986,-0.00261709683248224,-0.302981308282906,0.583749379162664,-0.365656499992694
103,103,-0.148001668587059,0.246046988153216,0.949452231295165,0.0173070032045864,0.173711974448002,-0.0031762866011603,-0.266278216340046,0.403257758339532,-0.191084709885136
104,104,-0.147801712049531,0.247479003565144,0.949563235704313,0.0217031876688933,0.173413986091777,-0.00319311431834734,-0.0118130718613766,0.312724349866107,-0.0467175925895739
105,105,-0.14772228040499,0.248929614152139,0.949700113703562,0.0232985874234253,0.169346995323572,-0.0026422396334763,0.00938315896168645,0.102456467717549,0.225953843799536
106,106,-0.147800867102095,0.250390649540843,0.949893897018296,0.0211762574748036,0.160686569088417,0.000981124832358888,0.0774166627033647,0.00289252221875989,0.499988578099906
107,107,-0.1479958554298,0.251849701185011,0.950141813683072,0.0156764880159209,0.145401208894425,0.00694308127479682,0.108641112652283,-0.0519260151676705,0.699253619383675
108,108,-0.14825040549757,0.253318740974459,0.950396380876095,0.00849813928452288,0.12814664193441,0.01332537154335,-0.0493683118492027,-0.140614181865546,0.744298741700169
109,109,-0.148507952591577,0.254809853129146,0.950610313416472,0.00381114336693944,0.115153946214151,0.0180850844179563,-0.177476418907169,-0.0428563212790465,0.427632441296668
110,110,-0.148712194891238,0.256335149234915,0.950736620663433,0.00310347126035627,0.110455882501693,0.0191229851618966,-0.110166188894814,0.0735221769175465,0.0529645721736838
111,111,-0.148876521526108,0.257910978769929,0.950770616038549,0.00618037197599753,0.116432833039579,0.0156042472765186,-0.23108173145249,0.137442056457174,-0.328104467460611
112,112,-0.149038584125449,0.259529281033119,0.950744024881293,0.0113186323335088,0.129383619817364,0.00886166248450715,-0.318156607064991,0.185017939764798,-0.452385175501665
113,113,-0.149178715279606,0.261165362992094,0.950665026279941,0.0168546245618067,0.143958989992986,0.000365748299534104,-0.35669277513294,0.237562736491842,-0.536330067390861
114,114,-0.149277344259253,0.262794284074791,0.950542109388577,0.022604989431889,0.154452991095192,-0.00853227857158556,-0.478063567699333,0.290275850555039,-0.632022578866733
115,115,-0.149315055958482,0.26439073909931,0.950384111591751,0.0262137214052366,0.157255022630024,-0.0165336735910633,-0.506074774134465,0.0734151550887426,-0.659517040913205
116,116,-0.149251945447089,0.26602681941031,0.950169166425652,0.0261070622598207,0.151373677843131,-0.0249829669383033,-0.349464162128478,-0.110580641663806,-0.64033994393022
117,117,-0.149101721957571,0.267717525467707,0.949894175450686,0.0244951519302217,0.139813495213643,-0.0347764583064232,-0.12536222855831,-0.302058885609913,-0.741223163837481
118,118,-0.148925446056615,0.269352212795709,0.949595625870163,0.020847490495956,0.12361337477374,-0.0440290882136559,0.0971349431857576,-0.252201309095373,-0.787214349581424
119,119,-0.148783906142224,0.270821400914939,0.949308686362919,0.0164014449107401,0.105735304911712,-0.0509328423354481,0.31111395897816,-0.103504638830698,-0.706885083546747
120,120,-0.148737510874938,0.272016902127642,0.949067035700781,0.0124450131510758,0.0883213721561507,-0.0537004074955905,0.314118860167076,0.00462943138334537,-0.523636686118406
121,121,-0.14880417722905,0.272821749762103,0.948851364073091,0.00855278167163876,0.0722403436162057,-0.0517078425442781,0.300775067129748,0.0788401845879008,-0.159778969238767
122,122,-0.148944332286761,0.273308157851257,0.948639338693085,0.00364107204312861,0.0567535862990523,-0.0458172599521448,0.252969791721887,-0.156252695383372,0.344065514255824
123,123,-0.149131349230863,0.273653233867134,0.948458584700114,-0.0027252758561086,0.0441816209257495,-0.037047970598687,0.26319796769772,-0.530461937169833,0.826701029534191
124,124,-0.149337905624694,0.274034879337556,0.948336294491376,-0.00869019405733543,0.0346255379151359,-0.0268209196195414,0.259427571042968,-0.908281680334747,1.06993630044179
125,125,-0.149535992200263,0.274631668894567,0.94829923414732,-0.0135501530321684,0.0284526160742212,-0.0164812109700402,0.358589834575294,-1.21115075858804,1.12789922682589
126,126,-0.149757737495286,0.275495098461198,0.948360801088041,-0.0187058854410217,0.0261128196578297,-0.00446136661316891,0.491142359647573,-1.46982935664355,1.07491946487587
127,127,-0.150020901657616,0.276508048684496,0.948502246059929,-0.0240408941143231,0.0263984178305942,0.0102980538638732,0.401382407576554,-1.51630435659079,0.969482173297725
128,128,-0.150275511639415,0.277596005693888,0.948701352538618,-0.0283266158720188,0.0286726918092081,0.0255372928994239,0.347913172902565,-1.51162113163915,0.975052454686797
129,129,-0.15047164246238,0.278683742878558,0.948935491968294,-0.029646301862022,0.032107369094787,0.0390218539818269,0.234887479842662,-1.4169465273051,0.906330976116213
130,130,-0.150559412615726,0.279695413207328,0.949181760370812,-0.0279693277749691,0.0331441388802034,0.0485392734577268,0.156100798329226,-1.28038856924564,0.776265621745181
131,131,-0.150508475202179,0.280664376333059,0.949452553517902,-0.0219853773100643,0.0311633226860149,0.0533759716615546,0.0853822914746214,-1.1923097338215,0.542038395349944
132,132,-0.150351611807137,0.281641059020749,0.949761648440386,-0.0121308850269637,0.0273658234685101,0.0549285965624549,0.0333830262340073,-1.18944649301422,0.284928911589498
133,133,-0.150133761360194,0.282574692079686,0.950087989190348,-5.1782336877974e-05,0.0220596628750968,0.0547277479908322,-0.23291547345273,-1.26234836630076,-0.0496294798413381
134,134,-0.149899994054716,0.283414316745418,0.950410466352453,0.0119862453562489,0.015387371200722,0.0539111650673315,-0.385203634190473,-1.43992179681085,-0.287504497861152
135,135,-0.149695501171661,0.284108840427783,0.95070803335887,0.0188375114327217,0.0139314092461024,0.0526334670579566,-0.376939545694905,-1.7396897177834,-0.105722581698596
136,136,-0.149507370671667,0.28467233457799,0.950991437077181,0.0210656876641944,0.0112758114718274,0.0522430556376598,-0.336058917449897,-1.62728379112888,0.0481170395116815
137,137,-0.149305721814674,0.285138396455004,0.951274187957598,0.0194928089531536,0.0086205882864337,0.051717766038094,-0.202485452695656,-1.4870977837626,0.177120453308481
138,138,-0.149110359304822,0.285485196057115,0.951539750861033,0.0154595695134852,0.0055387300200665,0.0507549594609352,-0.146499762891872,-1.23743921334041,0.140087322093818
139,139,-0.14894099256045,0.285690944478996,0.95177184814158,0.0110479053445987,0.000947840804945801,0.0490859015188574,-0.116247653199801,-0.97589579986669,-0.0408391319479731
140,140,-0.148817164127386,0.285733940966508,0.95195438371313,0.0080651902016984,-0.005008255851495,0.0463974519497177,-0.0640622695874435,-0.771794550957042,-0.23112389192086
141,141,-0.148744895636417,0.285576856776208,0.952088648641305,0.00591419203661483,-0.0123760753186609,0.0423393690609224,0.0435550298144214,-0.579547303827577,-0.322754572908961
142,142,-0.148711274072175,0.285234334679797,0.952186907682636,0.00474145477207174,-0.0210009021500994,0.037349313488177,0.0771125077807435,-0.416948316896145,-0.388837518521078
143,143,-0.148707256758991,0.284762699348884,0.952249406891476,0.0036246510656799,-0.0297691695145715,0.031868334508274,0.08091600159309,-0.32513034413856,-0.41228455134404
144,144,-0.148723785828481,0.284218116504524,0.952275969605792,0.00248480024202664,-0.0380973788396073,0.0265394810070328,0.15744949758366,-0.330861270776436,-0.378807835277121
145,145,-0.14875180823348,0.283656513345714,0.952265867887975,0.0013824038674442,-0.044753436870711,0.0220409921615518,0.141587164075875,-0.337925225173467,-0.308274511240386
146,146,-0.148791378471021,0.283097111228018,0.95218460223881,0.0010083667238661,-0.0489493631717845,0.0184667693738207,0.0414274933956859,-0.510808573760213,-0.213658236126587
147,147,-0.148848501306487,0.282502797089703,0.952034009987387,0.00139715217542497,-0.0512759044507284,0.0154556381082178,-0.0625608916467623,-0.624112074067888,-0.208392333522651
148,148,-0.148923079157627,0.281844640658984,0.951866947931478,0.00305566781064676,-0.0538524566912793,0.0128748050505976,-0.209715224111539,-0.687957877051312,-0.225084063387172
149,149,-0.149015049944754,0.281093459057951,0.951735582330382,0.00514859917802273,-0.0570976672262789,0.0102745335044264,-0.333128426452979,-0.8258775712896,-0.206298243472232
150,150,-0.1491243803134,0.280219823260395,0.951691357593529,0.00705458656811649,-0.0646867841395967,0.00763978751505102,-0.38069301473526,-0.83776118680824,-0.164712600877705
151,151,-0.14924510243501,0.2792348288627,0.951772339180295,0.0095382404324038,-0.0768454639454574,0.00469580256642086,-0.552885833085556,-0.848705168108394,-0.20212371255415
152,152,-0.149377278347739,0.278157465164818,0.951944118078217,0.0129310082529556,-0.0922279826571702,0.00131309155224985,-0.59409062645212,-0.854249322498689,-0.280061987421874
153,153,-0.149529890158847,0.276970394301274,0.95214864208549,0.0145996748762193,-0.10840536634784,-0.00213346537787115,-0.49760888226466,-0.802917541724536,-0.280674336181656
154,154,-0.149711888709717,0.275656789824432,0.952327534895944,0.0128772545764917,-0.123485709563759,-0.00540811139898449,-0.38279028673334,-0.693846736131276,-0.244723104056031
155,155,-0.149932198719237,0.274200286747112,0.952422138858894,0.00722544955899392,-0.135392040022498,-0.00761968305667698,-0.269393250098652,-0.674413327775971,-0.365441518053703
156,156,-0.150184583567406,0.272527229079802,0.952409351229994,-0.00100812338537933,-0.1465596531627,-0.00780231486558024,-0.206872198712743,-0.458353951435502,-0.260170895976866
157,157,-0.150462996785056,0.270649278260335,0.952327666977659,-0.013876192642223,-0.157082719652833,-0.00672393313977793,-0.103863550489952,-0.483760606380802,-0.167185035296583
158,158,-0.150776573531093,0.268678059292656,0.952210477986163,-0.0274957275784752,-0.164304364671332,-0.00578056115737367,-0.0791167390667964,-0.472975910237703,0.139760185120503
159,159,-0.151134439697593,0.266724844913671,0.952090944678032,-0.0389334891826588,-0.171738081012488,-0.0048579979732337,-0.0911189305511328,-0.447450387008596,0.15268714916222
160,160,-0.151545737088489,0.264900596526104,0.95200206522144,-0.047213261734475,-0.176898582592875,-0.00471338336583394,-0.104031949044886,-0.524141322288613,0.159884975213609
161,161,-0.152051126780987,0.263217925808149,0.951956701718829,-0.0511921444166913,-0.177391886549961,-0.00415224544706826,-0.115627688410591,-0.496314574658947,0.186825214624984
162,162,-0.152644327304055,0.261602497876466,0.951932138131053,-0.0520694605311511,-0.174479132288743,-0.00306790708025985,-0.31635606635182,-0.435630864091579,0.0602574233615075
163,163,-0.153264179301149,0.260034822793619,0.951908212604617,-0.0503251877594641,-0.170673140933922,-0.00231949987446657,-0.440526344261753,-0.290374862667225,-0.0490831033125076
164,164,-0.15384964167239,0.258495645776356,0.951865109977541,-0.0474227597942175,-0.166260219545182,-0.00283804540760853,-0.53954087600747,-0.301759821838693,-0.149785568476971
165,165,-0.154339789269178,0.256965984427587,0.951783409820623,-0.0453440366400145,-0.162840881133751,-0.0053577711588035,-0.550136631751876,-0.391319811656857,-0.298426354629145
166,166,-0.154664393091547,0.255408405488126,0.951659233667854,-0.0440986078926569,-0.162025254316182,-0.0108139962473903,-0.433428298563074,-0.29727276756762,-0.468994762352281
167,167,-0.154864264800594,0.253836090517969,0.951506814585743,-0.043179046026207,-0.161576514568944,-0.018633402066462,-0.331842961804675,-0.170507004315384,-0.576019220362266
168,168,-0.15504515615311,0.252306064043871,0.951334105994527,-0.0435990470183358,-0.157972872343546,-0.0274522554632758,-0.185192363683356,-0.182427048527254,-0.638352563460063
169,169,-0.155312847444384,0.250875157496529,0.95114873800835,-0.0447597585127745,-0.150925892399348,-0.0359219028993907,-0.119091725787851,-0.0764344823549748,-0.730233158578346
170,170,-0.155773190880884,0.249600018175846,0.950957891951677,-0.0461275306167849,-0.140014573739396,-0.0426750012744293,-0.109959607341419,0.172178832855963,-0.876900423884824
171,171,-0.156476043904111,0.248497378611192,0.950755503519646,-0.0501883803912362,-0.123292239510477,-0.0488347306055081,0.015611724922625,0.314041211662894,-0.907915340976759
172,172,-0.15735161458976,0.247529793869304,0.95053858614479,-0.0580338471602013,-0.103041991816024,-0.0555499486873427,0.193137491924933,0.296014582770301,-0.704513387511897
173,173,-0.15832618198196,0.24667245090048,0.95031754065224,-0.068433773434996,-0.0810518433764594,-0.0608782387931569,0.33936733947989,0.26849678903749,-0.38826716722966
174,174,-0.159325642980847,0.245900400850804,0.950101268468661,-0.0787204969204555,-0.0616783810693393,-0.0635218012331348,0.38491462509777,0.282906015004054,0.100280886465412
175,175,-0.160275413030057,0.245188497073425,0.949897194005981,-0.0862663877340904,-0.0493478554586946,-0.0618343314927224,0.380965768451518,0.40385768915947,0.472528188012456
176,176,-0.161214989597377,0.244609769808163,0.949696848246409,-0.0880578810301316,-0.0454796268029887,-0.05422869216074,0.496947977401612,0.581211876682764,0.887097787853871
177,177,-0.162194280242938,0.244181059196312,0.949493842847128,-0.0849806965850514,-0.0479893930348017,-0.0418401486805949,0.531842334847483,0.778965310388528,1.05953273396889
178,178,-0.16315363070571,0.24379259534595,0.949297501443243,-0.0785228383991506,-0.0532053094682546,-0.0268149010915216,0.432855677676375,0.927913094423111,1.14325798287649
179,179,-0.164032995967912,0.243334422760468,0.949116892493867,-0.0712992235597631,-0.0585867059453825,-0.0112879531750108,0.452342219885891,1.08119727285742,1.12841589243474
180,180,-0.164771980233248,0.24269643490123,0.948960920802705,-0.0662715385769976,-0.0618220121726523,0.00217298663310382,0.519145586254903,1.24973073738027,1.07286539106767
181,181,-0.165334132322866,0.241817207730877,0.948821631761265,-0.0647519880746183,-0.0631442737621673,0.0140468127393826,0.558789970815247,1.36635799182828,1.03543078198948
182,182,-0.165759067913445,0.240769702754206,0.948691643186219,-0.0653355067621197,-0.0631227762979641,0.026039621700871,0.699293572994847,1.49569239256029,0.964438503618074
183,183,-0.166100236896283,0.239645142405902,0.948580821485929,-0.0664179504120962,-0.0610202589041215,0.0370539042035807,0.688790456466607,1.36523779563343,0.812995613504479
184,184,-0.166411045512106,0.238534740246943,0.948499205765177,-0.0673388957260365,-0.058452107682239,0.045811262055842,0.641093315233054,1.35369023182206,0.663545029190109
185,185,-0.166744880207948,0.237529849412042,0.948456958781194,-0.0655638049833351,-0.0553387681521041,0.0509296782411549,0.369521639893681,1.32936184605731,0.385807998486886
186,186,-0.167115058939318,0.236579300061546,0.948466388421641,-0.0603463185392338,-0.0507432334338995,0.0513833357791098,0.158419732515413,1.34283237690554,-0.119254313533412
187,187,-0.167485610071808,0.23562214852111,0.948520449773697,-0.0537325851177703,-0.0448226427941129,0.048264919487078,-0.102882917207446,1.25932027289118,-0.457540424807742
188,188,-0.167836138893691,0.234735294402018,0.948600419857291,-0.0451837743610281,-0.0377880856628721,0.0428878575635213,-0.184420005979096,1.08696170359097,-0.707315518412961
189,189,-0.168146375889983,0.233995560121696,0.94868762442222,-0.0357296826839385,-0.0305450581706347,0.0366408650156779,-0.14897883624059,1.09071244045857,-0.727616719535554
190,190,-0.168396095720534,0.233479545838834,0.948763393522583,-0.0267494333576791,-0.0220609879886267,0.0309915506418075,-0.0110632391415716,0.971395173924849,-0.632505449288504
191,191,-0.168588778378545,0.233206187770418,0.948830007496406,-0.0225302158593766,-0.0129236661121036,0.0259532004154915,0.151894694895555,0.936015880007449,-0.544010407703396
192,192,-0.168738073183324,0.23312460631612,0.948900225342472,-0.0204147087683799,-0.00248088986680506,0.0203017729724286,0.298420668373689,0.769918766970724,-0.509396306861754
193,193,-0.168838995693832,0.23320639751506,0.948971069242315,-0.0196263059510678,0.00783182417667739,0.014601257710278,0.332320566496649,0.720776315788954,-0.453277382278403
194,194,-0.168886562665899,0.233423059740166,0.949039503977252,-0.0198587242430218,0.0179554419441001,0.00948805492759982,0.386096423985681,0.714690992958362,-0.296063850418057
195,195,-0.16887577054981,0.233745961140207,0.949102408525659,-0.0196341612034326,0.0271005963674654,0.00578136325203094,0.466021159326425,0.703678306297889,-0.175207167990048
196,196,-0.168808583804806,0.234206531834747,0.949151998232639,-0.020349860978267,0.0352916217713685,0.00439045011613352,0.376441173821453,0.603279948162613,-0.255558097985322
197,197,-0.168688367888882,0.234823415006881,0.949190858689766,-0.0173055515955885,0.0442051701046441,0.00405744281666828,0.41463750917131,0.595311591634534,-0.370889961553592
198,198,-0.168512212347485,0.235548877648942,0.949231220127313,-0.0105962204622044,0.0537855323412624,0.00454391039311708,0.239363947836653,0.573641035750794,-0.432634125998651
199,199,-0.168277301064648,0.236335550790292,0.949285093903472,-0.00228744893024627,0.0628467994982826,0.00525866099825981,0.198947133543992,0.742488225139043,-0.318963281133316
200,200,-0.167980918241167,0.237136468926518,0.949364248129718,0.00736122367351551,0.0707805576739921,0.0058025304690367,0.143404629295406,0.881911646812091,0.0331230298684588
201,201,-0.167598543777985,0.237937025668993,0.949478056015727,0.0164356380790662,0.0803358913787928,0.00677754745992031,0.0661263863311023,0.817308590606234,0.0926375924351415
202,202,-0.167132092692729,0.238768947560217,0.949618689285028,0.026727625696407,0.0909692831780219,0.00819481675557069,0.0890146767856678,0.844940475275315,0.113899568829237
203,203,-0.166618507559283,0.239654900104819,0.949771937682295,0.0360881344344657,0.102158856676918,0.00964369440511459,0.125316916504255,0.799610817097897,0.116957169912888
204,204,-0.166094705439209,0.240617346181343,0.949923602493403,0.0439817074271801,0.112539480499636,0.0108478915597057,0.0366343372940678,0.765415793075499,0.0751223835995138
205,205,-0.165597592900352,0.241678549282674,0.950059499346228,0.0496720816803534,0.121952916946788,0.0113608445734598,-0.00783529064692828,0.567214289590026,0.023585027699446
206,206,-0.16508213580407,0.242868864279395,0.95017763084131,0.0538685653886589,0.128778228957653,0.0110545520834685,-0.112256019118248,0.644870239631952,-0.129504209674873
207,207,-0.164523711512523,0.244173376675519,0.95028763888693,0.0561784466210002,0.134611343586409,0.00981893410482933,-0.0607291511426954,0.57819641791271,-0.169886010758173
208,208,-0.163989796618175,0.245546223900216,0.950392638056534,0.0565868163145654,0.138441295366741,0.00809650057654449,0.0438968521583624,0.515084178992934,-0.175170261685574
209,209,-0.163547821989723,0.246941457162001,0.950495515300727,0.0546445838361598,0.139288027653866,0.00617915437499281,0.16825336834416,0.463832293010708,-0.11846068887297
210,210,-0.163265184796341,0.248313060778655,0.950598947454169,0.0504387383481461,0.139372381888089,0.00499724661969213,0.0846584723218598,0.297717750605189,0.0358097779188351
211,211,-0.163189497316804,0.249658227713305,0.950717843740436,0.0420231508197338,0.137249511154767,0.00563732462357924,0.119681027193858,0.199860151020695,0.152539240317156
212,212,-0.163275659291042,0.251007303482168,0.950850087670817,0.0288493899781319,0.130886834712005,0.00757498139793218,0.103350047668863,0.306671050631368,0.260258377982395
213,213,-0.163452072915561,0.252364158472586,0.950972699834613,0.0146460519016412,0.123313399796209,0.00985274795026238,0.0295844090386521,0.259785109677863,0.25731713627238
214,214,-0.163647262313301,0.253732903264922,0.951062799118051,0.0039639891607973,0.117088812015256,0.0106069622288668,-0.0212013043557476,0.3455125326625,0.102382289211871
215,215,-0.163789849420944,0.255117792428577,0.951097735841633,-0.000466514172909722,0.115341216628189,0.00850308172631687,-0.178991925896678,0.363699016131133,-0.196644135053575
216,216,-0.163873589816859,0.256537013321144,0.951086837497095,0.00061579527277707,0.120502652008073,0.00254859045928196,-0.228743590416588,0.368989944917923,-0.603308819346135
217,217,-0.163946122554364,0.257987852409849,0.951045623344513,0.00414179659068134,0.130618985307648,-0.00624687033452123,-0.213109714398802,0.330654754149102,-0.839098055704039
218,218,-0.16401696576069,0.259443032691958,0.950961300435812,0.00776198831652438,0.141090846499244,-0.016498476187559,-0.266080192937743,0.230974654655073,-0.900637525769358
219,219,-0.164095709809702,0.260875028912361,0.950821459831123,0.0105029063733898,0.148235332020721,-0.0268490959965159,-0.266731080724683,0.027783026612511,-0.868442749641456
220,220,-0.164192080424014,0.262256005578659,0.950614123980454,0.0111355493189825,0.148224342118609,-0.0358305288422214,-0.25673878763961,-0.138433588653152,-0.803179077217913
221,221,-0.164307886957499,0.263663246854082,0.950307390499749,0.0080761126555646,0.139851779575666,-0.0450998428291151,-0.301093301914562,-0.261375771885093,-0.869813319870656
222,222,-0.164437132608178,0.265113638028385,0.949912765518293,0.00174408625212316,0.124401536136713,-0.0554761948116735,-0.21228741464378,-0.241784758194721,-0.953328936979441
223,223,-0.164578002191863,0.266488953090284,0.94948255502376,-0.0066512699605867,0.103969693968236,-0.0648776085053578,0.0881981909766505,-0.0635814037078523,-0.890291649724714
224,224,-0.164728614778142,0.267671876434642,0.949067067663157,-0.0146320685898772,0.0826191219407237,-0.0711263940298081,0.273421624964358,0.0810037415884153,-0.714746123225631
225,225,-0.164886889857495,0.26854613034303,0.94871439779402,-0.0201184909857965,0.0652837200018292,-0.0721676224689675,0.402212849072138,-0.0320420907654639,-0.42281626416864
226,226,-0.165106875474834,0.268969284182398,0.948410792691417,-0.0223116804321328,0.0504697532979699,-0.0666131609399909,0.523685869125679,-0.197300537760353,0.130425463170293
227,227,-0.165390772406691,0.269018621234689,0.948123452341508,-0.0217584968397708,0.03494337244144,-0.0555895277698793,0.428550289652126,-0.164830816997454,0.700903120162489
228,228,-0.165657998044077,0.268908927514006,0.94786987227121,-0.0208306234034908,0.0239474790780438,-0.0411660690950591,0.355749978846837,-0.531940307195403,1.28190481111541
229,229,-0.165827273091806,0.268855918950444,0.94766717344061,-0.0202522400420897,0.0174086767211471,-0.0260175925740834,0.460047504065835,-0.95531089744404,1.68899925429185
230,230,-0.165816641014768,0.269076062384023,0.947532191310259,-0.0196516653154315,0.0150973601742069,-0.0125605589364359,0.607378995653649,-1.20122272462042,1.71104245303364
231,231,-0.165586490037473,0.269631626796015,0.947474290993847,-0.0168397731485438,0.016844997796274,0.000590147799748448,0.669183722318914,-1.36838954342724,1.44462799803389
232,232,-0.165190526053512,0.270380044985218,0.947480661690739,-0.00958252504969274,0.022217535014466,0.0153577073156061,0.576219556438058,-1.51058815120193,0.995454972705465
233,233,-0.164686339737808,0.271230502110838,0.947534605143125,-0.000386950866449465,0.0302310469620253,0.0301269312503651,0.490841602735922,-1.51203280686947,0.816223887168149
234,234,-0.16413156753825,0.272091685131601,0.947619408403996,0.00924775116120319,0.0386574746915715,0.0427735256513721,0.382481588503535,-1.43864212767634,0.709371365347541
235,235,-0.163583918354482,0.272871874086119,0.947718390972095,0.0172606500961066,0.0436071432151559,0.0512145145358446,0.319447088228524,-1.29223471598118,0.63832597517382
236,236,-0.163004895619049,0.273586734802312,0.947840118063658,0.0238504967366294,0.0438791796838429,0.0546313051056562,0.113614789484015,-1.20043492903869,0.441983927863181
237,237,-0.162355637788538,0.274297376634737,0.947994608456478,0.0297878799549358,0.0394558932618376,0.0543040384882201,-0.0944247714663816,-1.02340937754325,0.144973686887332
238,238,-0.161693439082531,0.274979807255465,0.948167434486892,0.0345182788166947,0.0323697868048916,0.0517288846173286,-0.25156153971791,-1.07313228348851,-0.184112237936234
239,239,-0.161075605995308,0.275609831827966,0.948344249714829,0.038608287623981,0.0234089327808167,0.0484309587799488,-0.394247091217622,-1.18384468061878,-0.424870079504015
240,240,-0.160559420340468,0.276163168512264,0.948510849859469,0.0421448506730794,0.0143647577357332,0.0459120699669964,-0.47661892336366,-1.3461094824843,-0.488643878606158
241,241,-0.160151476155059,0.276685363124143,0.94866457512066,0.0442503120982207,0.00779493077789386,0.0439337237199804,-0.380974562363689,-1.61199262675779,-0.328903625938783
242,242,-0.15981369372548,0.277192151360241,0.948814828638249,0.0448371465309503,0.00284387057533335,0.0416285763926623,-0.253245200741201,-1.76279099815856,-0.142926864295786
243,243,-0.159536379615892,0.277614668314293,0.948965773017001,0.0446638698932485,-0.00228411512535963,0.0390666111517687,-0.135364823029317,-1.60921710575529,-0.0540110407881158
244,244,-0.159309841661832,0.277884174934926,0.949121672689314,0.044479309841417,-0.00942777310530883,0.036345596331286,-0.0839414668169025,-1.20410500840002,-0.0824804709003575
245,245,-0.159124313928929,0.277932049652337,0.949286823328673,0.0431415827070199,-0.0186700442639823,0.0334603265225346,-0.0591209160769281,-0.807115929596107,-0.129600636691165
246,246,-0.15897913253949,0.277714457007877,0.949470587941959,0.0413681484411321,-0.0296286652192331,0.0302835284182741,-0.0818655058145817,-0.519995822290496,-0.133224665041211
247,247,-0.158880984292244,0.277277581050019,0.949671245317371,0.0390394008397975,-0.0421676568479117,0.0267879727717437,-0.042679722148259,-0.338250515277711,-0.227065086776962
248,248,-0.158830994608225,0.276687744365529,0.949876266741703,0.0358966473427275,-0.0547050028458957,0.0232088710459931,0.00194502603851358,-0.383843483285158,-0.274177940639885
249,249,-0.158830284588099,0.276010938366624,0.950072768093773,0.031924277900134,-0.0657647162925129,0.0197026407225005,0.119422562207785,-0.467271949997761,-0.328150900850319
250,250,-0.158880000098215,0.275312768525531,0.950247420884837,0.0268252337617023,-0.074894792902366,0.0167619627364202,0.170060424913414,-0.540931478312622,-0.311567911530264
251,251,-0.15902776948116,0.274592612002365,0.950395514108194,0.0209323454068533,-0.0831162789951112,0.014337560681495,0.0925642043735447,-0.596929764998555,-0.330921851059598
252,252,-0.159272909683198,0.273806490595008,0.950526696810858,0.0139855409011054,-0.0907809664327505,0.0122406555746309,-0.0147127591584079,-0.653987602635613,-0.314528340834687
253,253,-0.159544079343341,0.272954720115784,0.950648463960333,0.00681144774395723,-0.0976394710002276,0.0103257834995767,-0.0809638216469208,-0.727281384245771,-0.210368778482357
254,254,-0.15976989271704,0.272037649488068,0.950767813935978,0.000709214742573926,-0.103795107422901,0.00863638899832045,-0.0802079545616334,-0.778745563285934,-0.182074841981365
255,255,-0.159878924460383,0.271055665628753,0.950891254352044,-0.00229887898407536,-0.109363598417864,0.00719216652913664,-0.146327647074398,-0.941516493928716,-0.114713139451077
256,256,-0.15982259626595,0.270021975417205,0.951021752445327,-0.00110075819749998,-0.115671153881773,0.00623475211664714,-0.29713059076183,-0.838449807552145,-0.0901459915493933
257,257,-0.159648537961517,0.268936093925546,0.951154522201384,0.00382469706592904,-0.123628220653053,0.00592159351600568,-0.354385622301395,-0.720474160973172,-0.119431566470066
258,258,-0.159429528003007,0.26777805623456,0.951284133874149,0.00981042316420389,-0.131060467952388,0.00605688668043137,-0.332880217583734,-0.707585046558867,-0.102783449456083
259,259,-0.159238237250764,0.266528081343466,0.951405213292289,0.0138440864982718,-0.137461637785829,0.00606078925136393,-0.296495497465973,-0.644820947107265,-0.00899813356520092
260,260,-0.159147231116871,0.265166550953659,0.951512460574825,0.0153792064778529,-0.143949329667608,0.00588791285480139,-0.282818652510125,-0.588003130223144,-0.036875888473724
261,261,-0.159155274777139,0.263638680555866,0.951607577401679,0.0130538521758983,-0.150975376594082,0.00580124357184262,-0.163265976179396,-0.523366239617556,-0.0610304082008611
262,262,-0.159213678823537,0.261957749848897,0.95169415320649,0.00693510000861834,-0.157690154068827,0.00596322701548955,0.0374823623343464,-0.505935738853285,-0.06284520297894
263,263,-0.159323840956161,0.260206317122049,0.951769517329507,-0.0015188066275391,-0.163033313170979,0.00631707640127438,0.0584870643511341,-0.498055241988478,0.0334197206015797
264,264,-0.159487297023937,0.25846692637872,0.951830645757217,-0.0110870901656726,-0.166623921570689,0.00641874144395862,0.00306979970250263,-0.475618512480366,0.093250320447361
265,265,-0.159705729180761,0.256822126512256,0.951874214915889,-0.0183593939322792,-0.16818700683387,0.00581857844570405,-0.036434125384592,-0.348473224532464,0.118582512840605
266,266,-0.160017365406939,0.255317187172198,0.951916702964098,-0.024096749156338,-0.167336947055145,0.00480745940349929,-0.100252682071883,-0.345990141727309,0.0689175416488843
267,267,-0.160421139895128,0.253897146960184,0.951959723023667,-0.0299211391714754,-0.164998694743634,0.00368617782397655,-0.0357617259746951,-0.333744463272049,-0.022780622962513
268,268,-0.16085992207484,0.252494236497744,0.951977819397118,-0.0341352047721062,-0.16226132075543,0.00193477801854945,-0.117077032104314,-0.291026628039882,-0.154241631643409
269,269,-0.161276580644471,0.251040786695418,0.951945892007435,-0.0368886875171303,-0.158316637230642,-0.000907844177598946,-0.110507234465959,-0.350611318052023,-0.320727158878751
270,270,-0.161614021295394,0.249469302926881,0.95183916988946,-0.0375996868635686,-0.154780219638984,-0.00527918858147056,-0.129846324423706,-0.308490715200281,-0.400520915006342
271,271,-0.161855077623502,0.247699375579695,0.951633777068805,-0.0337444330694142,-0.153938727263866,-0.0123603481033454,-0.0708117462901128,-0.225550748576321,-0.553315372688693
272,272,-0.162038138198462,0.245776673250583,0.951347215202769,-0.026764209371189,-0.15489526929499,-0.0217570291220294,0.055728100830674,-0.121573624187092,-0.641444242872259
273,273,-0.162189546566969,0.24382283959528,0.951016899350842,-0.0181665533867479,-0.156002918729851,-0.0316391292770593,0.0228869566742664,0.0230108994616354,-0.745147128705739
274,274,-0.162335603696859,0.241959271581109,0.950679984445376,-0.00982929913849399,-0.156098571388332,-0.040245556945944,-0.0258517512818256,0.173375209617879,-0.829443533116074
275,275,-0.162502524932212,0.240307048795011,0.950373334219991,-0.00452387004377283,-0.152703772068943,-0.0458798558469722,-0.0300423149960919,0.341528784844373,-0.721002958455366
276,276,-0.162696048932283,0.238868229317377,0.950092191467588,-6.85090914473663e-05,-0.144049832805181,-0.0488234445235467,0.16588006387426,0.357847080773654,-0.857968486753425
277,277,-0.162899266115903,0.237562337587536,0.949812999681393,-0.00358542215509802,-0.128245154695305,-0.0495797446512405,0.266710223194562,0.36490879114481,-0.552870808106901
278,278,-0.163104167279829,0.236386275305353,0.949543606743617,-0.0120631407748361,-0.108287192174456,-0.0485100507121986,0.379696594020071,0.360353442740607,-0.184031188712543
279,279,-0.163302467640393,0.235336852599299,0.949290986550502,-0.022476809878323,-0.0879117525500354,-0.0462272993523512,0.308168579287096,0.413599637040595,0.273139433656202
280,280,-0.163485588650373,0.234410797470278,0.949061239398881,-0.0317431194297868,-0.0711434118488978,-0.0433253854863381,0.00888363086986866,0.515960798809349,0.719540159335868
281,281,-0.163632670652007,0.233691631700355,0.948860710186394,-0.0291889684266838,-0.0610396490490412,-0.0410212476159682,-0.127028255892868,0.71578016899053,0.479843451954537
282,282,-0.163749508838373,0.233181649964821,0.948684457079417,-0.02151266641467,-0.0541197905736477,-0.0381326093832341,-0.342888626807209,0.888730786109077,0.304516615429475
283,283,-0.163867059522871,0.232755362324775,0.948520901418135,-0.0120479165537769,-0.0496868103309078,-0.0345081248019233,-0.285723534581474,1.10630700672745,0.151605225994531
284,284,-0.164015960695365,0.232286906027106,0.94835830707992,-0.00463143490966835,-0.0477528532357974,-0.0296840759015339,-0.00510064664502316,1.28266290650035,0.255101179334416
285,285,-0.164226552567719,0.231650114907393,0.948184824231133,-0.00285422113344432,-0.0476219057601122,-0.0231812984869959,0.318137477050111,1.42090820921223,0.443084599672485
286,286,-0.164534974908102,0.230782806990174,0.947984946930985,-0.00806665093442564,-0.0502335628809724,-0.0140164599600315,0.565567084990517,1.41859177467838,0.710687517851122
287,287,-0.164920410516144,0.229768505176779,0.947765588229094,-0.0180123019569335,-0.0555175954129714,-0.00261635871243331,0.61966195631417,1.34816391970794,0.911185993158197
288,288,-0.165327534924915,0.228699426823724,0.947548501520829,-0.0296194023872843,-0.0614413552482979,0.00927008334755646,0.665646558987207,1.2400997712971,1.01023014963279
289,289,-0.165700993498893,0.227667807391399,0.947355535762136,-0.0391852348029337,-0.0645699408414363,0.0201089818772608,0.494891990184046,1.01394333995842,0.875283158398266
290,290,-0.165985432614769,0.226765932393079,0.947208648820212,-0.0433024163121363,-0.0643259758351705,0.0280151751076989,0.259126499207031,0.953545474331547,0.650262514423001
291,291,-0.166176386093933,0.225966654056068,0.94710825938285,-0.0403025727795039,-0.0594272131073659,0.032843590975063,-0.0106110757658185,0.945448615930015,0.368487243178661
292,292,-0.166310420745784,0.225208376168544,0.947039428628349,-0.0321922117647385,-0.0505319024135113,0.0358245987831626,-0.188010675241835,1.07203799172242,0.197512747037014
293,293,-0.166393860919363,0.224531819457002,0.947001195632328,-0.020280062446848,-0.0342640386847285,0.0377211238397525,-0.457922010296409,0.791098139212116,-0.117894412293894
294,294,-0.16643310591415,0.22397768845108,0.946992613624981,-0.0133188265908735,-0.0311396033139718,0.0367372782974476,-0.154016862348475,1.8045466457847,0.1224071089209
295,295,-0.166434564827133,0.223586592923178,0.947012716385816,-0.00705146730693941,-0.0192324539826093,0.0355228342750616,-0.340609201494213,1.11743422161039,-0.161291415245195
296,296,-0.166365871154975,0.223351207414894,0.947078750555792,-0.00550842395468314,-0.00955876914649185,0.0320445910079812,-0.203307907357628,1.14400446229541,-0.200822323040492
297,297,-0.166222862308297,0.223244654024202,0.947191478003935,-0.006602807804711,-0.00193837511461296,0.0261976091865023,-0.141713849739404,1.06617186598115,-0.341446352975419
298,298,-0.166054233652734,0.22327806789629,0.947325215569127,-0.00976998416136315,0.00573392793780429,0.0194800147987067,0.028979132682315,0.969054085311376,-0.474868652375062
299,299,-0.165908679510647,0.223462490414405,0.947454297986743,-0.0128858303262782,0.0138141053582133,0.0131047736983828,0.0471619081581083,0.859290602336499,-0.547261726498061
300,300,-0.16583487908026,0.223808843790112,0.947553049742985,-0.0149313101370647,0.0225797998213289,0.00847572600153406,0.00412122307536159,0.73919317460097,-0.579490868599148
301,301,-0.165878515769349,0.224363517383667,0.947613181939001,-0.0189794299200311,0.0318832052491087,0.00613333267005737,-0.0219290338892315,0.536522994409663,-0.611871852418572
302,302,-0.166007235683709,0.225119049808094,0.947652260499679,-0.0223665150953991,0.0413485385219775,0.00441860742142974,0.0565464789634961,0.658129980030644,-0.642938528052458
303,303,-0.166152642244093,0.226005575412301,0.947683235348428,-0.024161412428897,0.0524779445682936,0.00336345674855903,0.107373232225803,0.666330080383916,-0.500831351568224
304,304,-0.166246354212179,0.226953385196965,0.947718852042027,-0.0234654677689244,0.0639899044114524,0.00281433346053651,0.0800704998739574,0.685648044893421,-0.268263455949489
305,305,-0.166220001801508,0.227892946571832,0.947771633929465,-0.0192811561204218,0.0741897780282691,0.00264316225965076,0.0567815661206237,0.663818088655061,0.0632407365270334
306,306,-0.166036851563896,0.228824659557993,0.947840396572148,-0.0149036261626632,0.083526971877271,0.00377003798313858,-0.0746234633993534,0.602173165281814,0.179576531376988
307,307,-0.165742584125538,0.22979511044535,0.947916802008861,-0.00722669210897136,0.0923296853911423,0.00581033524580656,-0.145773315653662,0.561186900860852,0.177627249801272
308,308,-0.165392402856599,0.230804043321239,0.948002441510113,0.00234710129445519,0.100293658290051,0.00823793001285188,-0.181099835956123,0.573936884250643,0.114027792510418
309,309,-0.165041454773619,0.231851026324506,0.948098858533251,0.012020458959023,0.108544760534297,0.0106955346402731,-0.139863562883481,0.483987064541216,0.0800298332368277
310,310,-0.164744830432096,0.232935462598112,0.948207559223856,0.0188371906010965,0.115082409611863,0.0128095592783314,-0.0990865443873199,0.556495971282261,0.17478934945489
311,311,-0.164486707608927,0.234069166895458,0.9483278730567,0.0232203088187176,0.120331943418473,0.0151470943619311,-0.0631763386180248,0.644918327535915,0.127989263843851
312,312,-0.164230242495931,0.235252346766179,0.948458810259544,0.0262708747528941,0.125244055646516,0.0173394528759573,-0.0639745671395694,0.635582762409221,0.145181642087918
313,313,-0.163998952605126,0.236466913960144,0.94860129449466,0.0286381315161517,0.128774428013239,0.0188305607396774,-0.0337345372776791,0.648483491161111,0.194456787378441
314,314,-0.163816380915239,0.23769481876345,0.948756126882576,0.0301315408818556,0.131219714083959,0.0201648997660613,-0.0450309657642753,0.515008624512374,0.210367673987947
315,315,-0.163706109411828,0.238918042458012,0.948923991830568,0.0312428130231741,0.132938419182952,0.0207038797613287,-0.107017543859824,0.403353490474175,0.170217951451672
316,316,-0.163682904660666,0.24011365633808,0.949121380679784,0.0313163617383122,0.130945774219498,0.0200926875469286,-0.0747468213423689,0.397261500353645,0.165256909652774
317,317,-0.163730943071767,0.241293592487246,0.949347582814948,0.0306768025852827,0.126159701647275,0.0188922026439822,-0.0339693061078755,0.389830254357626,0.0918038791907103
318,318,-0.163827994567561,0.242492178833117,0.949577510538812,0.0296319049087811,0.121731077381616,0.0171460421684518,-0.0204174935933609,0.391359267323026,-0.0815892090003941
319,319,-0.163951882206308,0.243743786239619,0.949786203463746,0.0281597641895971,0.119650165849822,0.0148143886459512,-0.00760202443935636,0.388566994032232,-0.158831084409268
320,320,-0.164080480404415,0.245082822673207,0.949948816303725,0.0263841150695887,0.121185691786588,0.0120480058266732,-0.0390771040197666,0.552801458803881,-0.287257815485055
321,321,-0.164221452496468,0.246519261470536,0.950061098114787,0.0232532247246577,0.12846814962599,0.00829441742245,-0.0241985096742762,0.596194433781993,-0.364917848470399
322,322,-0.164389592167685,0.248030258781299,0.950139734708998,0.0178912294378074,0.1390332779184,0.00352534321164204,-0.0700242381027047,0.689473864124752,-0.394330248849798
323,323,-0.164573513492781,0.249600949118924,0.950191426954973,0.0115906530689986,0.150762511296767,-0.00145357133725043,-0.0582872244942599,0.63592096705692,-0.342223173886417
324,324,-0.164761837270351,0.251216359638927,0.950222958946407,0.00480697788802138,0.161942614219286,-0.00588320424024817,-0.0216019468782548,0.398469204740619,-0.275209847967383
325,325,-0.164943189989718,0.252861403955542,0.950241218930629,-0.00111402284369311,0.168729630901478,-0.00896762613033731,-0.0816083888749087,0.242272725326305,-0.265285294726904
326,326,-0.165143985210757,0.254591431931966,0.950245104202174,-0.00780214747134793,0.171551709926164,-0.010221281294745,0.0532576363926412,0.023645643637872,-0.18487088198985
327,327,-0.165371814846387,0.256416283376462,0.950230429340098,-0.0140828852611076,0.172664282837681,-0.0101369248142691,0.102927978890372,-0.119743501718516,-0.137074209202974
328,328,-0.165587149674627,0.258252528441786,0.950199630386272,-0.0178327060822279,0.171506450340697,-0.00948872629141501,0.0633459410660254,-0.345000056823593,-0.0812234008638763
329,329,-0.165750569997713,0.260016738850274,0.950155284977301,-0.0192411616678697,0.167809419859931,-0.00910392070128801,0.0454218433967777,-0.460713099078726,0.0672552229388437
330,330,-0.165822777029562,0.261625428166896,0.950100161282654,-0.0171583857125441,0.161769486995336,-0.00978230323947652,-0.0551552497634298,-0.501761964261477,0.15278862674262
331,331,-0.165769705904333,0.263082537670365,0.950021637184222,-0.0111493301692227,0.152332133622819,-0.0122309674077382,-0.211455730002171,-0.440142878851698,0.0603944015181036
332,332,-0.165617944540137,0.264443118192972,0.949919265473604,-0.00128834974906263,0.138901663312912,-0.0158793395873372,-0.387508837030739,-0.333681746141961,-0.141893902545247
333,333,-0.165419222376276,0.26570036426233,0.949813888260887,0.0089489894193684,0.123160032626163,-0.0197635283619701,-0.473652579453574,-0.218710396530064,-0.280841422546921
334,334,-0.165225197951992,0.266847701657613,0.949725758382117,0.0176271941675975,0.107719220741534,-0.0228736845398479,-0.454476641725206,-0.194074833760364,-0.445421960984338
335,335,-0.165087440171769,0.267878855137603,0.94967446850785,0.0225510531540012,0.0951895002457009,-0.0243560167036656,-0.347813575794503,-0.403454817569922,-0.553842868848436
336,336,-0.165016808041816,0.268740459797887,0.949667259243775,0.0213398572506737,0.0849028919344542,-0.0244952125172814,-0.0443174120563934,-0.532599454800888,-0.409563610666948
337,337,-0.164979454345842,0.269436215302598,0.949691592243388,0.0153333706442686,0.0754262206791039,-0.0239175591103688,0.295572697691551,-0.625519080211054,-0.0626446392846745
338,338,-0.164959470533902,0.270046167436729,0.949736330225196,0.00736263008913267,0.0667196715335619,-0.0221325975925058,0.517887668588767,-0.745678762919575,0.235972394245796
339,339,-0.16494044017041,0.270650996605472,0.949789571666587,-0.00193078998972924,0.0589070124130327,-0.018917811040397,0.722701215572113,-0.836810605175647,0.606529768874854
340,340,-0.164905445550478,0.271331933757757,0.949838699086549,-0.00849985899344416,0.0519969270839594,-0.0141925966840048,0.686015604338857,-0.885645491925553,0.786623287581514
341,341,-0.16487254119722,0.272124566179793,0.949868670997559,-0.00998444076777177,0.0466336213333865,-0.00688067299808908,0.616809786520592,-1.05447620727034,0.854203279190335
342,342,-0.164852472960339,0.272975622682205,0.949886770743203,-0.00665134731951475,0.0416987343895742,0.00300667395932611,0.470767451692685,-1.07713737034316,0.809281965883521
343,343,-0.164816957317864,0.273833297887355,0.949913280766357,7.09406592406075e-05,0.036972394563701,0.013773467297124,0.293089079113283,-1.1733372247138,0.727608042313802
344,344,-0.164737609416093,0.274645685379059,0.949968365662012,0.00751749622726324,0.0318405419330548,0.0237017988530603,0.141710450504781,-1.3000935552326,0.619532721064715
345,345,-0.164585987112035,0.27536076818755,0.950072121036051,0.0131280150557071,0.0259444123570941,0.0308491642332116,0.0975123781204698,-1.37309300660856,0.522043356680572
346,346,-0.164317770670522,0.275976466755487,0.950240340057134,0.0155014226063253,0.0183955631064998,0.0345028663365271,0.105478367620941,-1.41904870862431,0.313545110842101
347,347,-0.163951537664814,0.276527736101052,0.950458647056652,0.0152038212390134,0.00982194396872214,0.0358516878101971,0.150051640005407,-1.46198639077804,0.170987211216557
348,348,-0.16355328032352,0.277017859785877,0.950701932542296,0.0136781473033432,0.000455772359959119,0.0356002782199905,0.180430540171309,-1.4376358188096,-0.0292519733982726
349,349,-0.163189038322302,0.27744992986647,0.950945208791006,0.0119566339002731,-0.00879533929683561,0.0346904762593683,0.134218335567664,-1.42157360663162,-0.28002200136914
350,350,-0.162924841691002,0.277826910240957,0.951163636245231,0.0104773796522809,-0.0155637028152218,0.0338107754830338,0.107541913100893,-1.42136585426909,-0.410833146962104
351,351,-0.162795130387242,0.278177746001227,0.951356685118972,0.00909413076363695,-0.0179786868723411,0.0326123298201609,0.130189039444639,-1.37739116277624,-0.36789341787443
352,352,-0.162756026779393,0.278499989896898,0.951540908263494,0.00767207917938655,-0.0173977910661233,0.0306465882453402,0.138651475438423,-1.31545234413555,-0.259169818160737
353,353,-0.162756068411603,0.278749562567613,0.951717289367304,0.00724821968587069,-0.0160383813105353,0.028527172680544,0.124230238953584,-1.14704668647249,-0.123013573963099
354,354,-0.162743764753086,0.27888256598505,0.951886862144259,0.00804310435386349,-0.01579785595334,0.0267941272928975,0.0829435899962378,-0.993815501240558,-0.0591666089979915
355,355,-0.162667556599391,0.278855330140789,0.952050658857335,0.0109391040840535,-0.0188030993665836,0.0258910255048621,0.113039364393237,-0.843998852294854,0.00407091119839134
356,356,-0.162527728825005,0.278649765316776,0.952213918585797,0.0159372439350277,-0.0247626432678338,0.0264579702620623,0.0762884140471894,-0.727095836417071,0.061344681996131
357,357,-0.162358819522255,0.278295151292434,0.952376801069453,0.022475005634129,-0.0335332428937927,0.0280707998151795,0.220697528935858,-0.657007264867164,0.209576706968974
358,358,-0.162160504828159,0.277819032074442,0.952532517879681,0.029378563265276,-0.0439444353743589,0.0299749674508332,0.289316772426384,-0.565130194788671,0.247562856171924
359,359,-0.161932379358462,0.277248857460824,0.952673946907714,0.0360422622193265,-0.0544270228916655,0.0311102767884647,0.34176788465024,-0.489891894715125,0.157155697701121
360,360,-0.161673971163359,0.276611942610349,0.952793562949523,0.0415750460675591,-0.0636778379594089,0.0304238614433939,0.24804519636354,-0.392848297487721,-0.042571704836708
361,361,-0.161366768443586,0.275900380400797,0.952889457485002,0.0449528149365133,-0.0710355280787351,0.027243760902985,0.202604302384979,-0.383369316285573,-0.204902565146694
362,362,-0.161011035731096,0.275096077026639,0.952966982418907,0.0477440917926732,-0.0770789670165521,0.0222884194632604,0.087784513710336,-0.381228720430733,-0.357585195757302
363,363,-0.160634415507164,0.274210873717096,0.953028999245049,0.0499486016927179,-0.0812891517283206,0.0163008739976748,0.0382796866447996,-0.474886654586743,-0.40516078783703
364,364,-0.160264533613936,0.273256493068587,0.953078102746507,0.0514650237333182,-0.0861827496640794,0.0104001942195192,-0.0345149916366723,-0.508054535722379,-0.540883216160728
365,365,-0.159928994577342,0.272244546482579,0.953116629195336,0.0511003551009598,-0.092390009135764,0.00524811169575649,0.0202453409481692,-0.552589664463421,-0.546433213359389
366,366,-0.159625998185744,0.271198741553594,0.953153101938804,0.0490912861214599,-0.100632532658591,0.000574717241751945,-0.000725983884230304,-0.546311876154249,-0.459986192705034
367,367,-0.159337071172029,0.270111034420336,0.953185647637355,0.0466924818916889,-0.110637562563936,-0.00405448744300013,-0.0640606924857447,-0.521802000671279,-0.512835671508556
368,368,-0.159064776618997,0.268945544724343,0.953200871393296,0.0437742323843051,-0.121645242716537,-0.00824876306152336,-0.0667813618511743,-0.543609336888406,-0.414273845915641
369,369,-0.158811667354398,0.26766666146407,0.953185411650561,0.0395589224930286,-0.132036771241788,-0.0118484333494882,-0.0519339322360714,-0.578561365840367,-0.323859496087482
370,370,-0.158580281602834,0.2662390252933,0.953125940658992,0.0349634575306127,-0.141616768716868,-0.0146699814477183,-0.0115274314294643,-0.610448508719466,-0.207781283814175
371,371,-0.158338311926757,0.264607574922595,0.953001298348785,0.0301046531425964,-0.150667708490766,-0.0163654120103575,-0.124077090670714,-0.589395531054582,-0.215102722145224
372,372,-0.158083904079946,0.262796345997758,0.952820305267473,0.0250244531116612,-0.159600542226909,-0.0174263027119027,-0.0746291607420084,-0.511010495854955,-0.165337424295089
373,373,-0.157865293234108,0.260888642687338,0.952614520785915,0.0208963487462803,-0.168549948405694,-0.0180564562924765,-0.168717108785651,-0.413703488054373,-0.163413436989873
374,374,-0.157730791608248,0.258967550995003,0.952415373267367,0.0170479445200711,-0.176916479659787,-0.0182541750265938,-0.274863237750377,-0.336045457773435,-0.211186156716647
375,375,-0.157728800602113,0.257115950178263,0.95225423117704,0.0113916733342697,-0.183304998205974,-0.0183968612462158,-0.217902766153483,-0.273948221119618,-0.161167696787477
376,376,-0.157920928924588,0.255319494452634,0.952141822893711,0.00339202717782613,-0.185390873317541,-0.0178214924834876,-0.0828280981334955,-0.2075217701729,-0.0980406854066691
377,377,-0.158274874062727,0.253522802974059,0.952057119098757,-0.00775871878166116,-0.183349977987902,-0.0163541291577146,-0.0594658505145934,-0.096905647094279,-0.0768537924476226
378,378,-0.158698313627042,0.251747046983374,0.951983986815569,-0.0190910212471125,-0.178061215545068,-0.0146881175974272,0.00338281771333283,-0.0460784637786824,0.0400348372340444
379,379,-0.15909901085358,0.25001342916377,0.951906474019195,-0.0280742863296433,-0.172337509684253,-0.0133937348263473,0.059973613789249,-0.0112656885494292,0.0658804888514994
380,380,-0.159384814956701,0.24834326046794,0.951808826148558,-0.031900921390008,-0.167309003775702,-0.0130241030953941,0.0557432893246661,0.0550763885223534,0.0653375473234207
381,381,-0.159557593994849,0.246720214425213,0.951698804120519,-0.0286569142588544,-0.163446400825186,-0.0136945536251563,0.0689625689020141,0.0113788170884486,-0.0455409886835346
382,382,-0.15967905029335,0.245130266810657,0.951587915953975,-0.0201557339032219,-0.160336042327953,-0.0150028729446666,-0.014182273105817,0.0167542009279394,-0.128675370525358
383,383,-0.159746816386265,0.243598380757052,0.951466114597883,-0.00880551845984083,-0.155669889049072,-0.0168266555838691,-0.0772367056345859,-0.132868358516282,-0.212253856221978
384,384,-0.15975848024752,0.242149605036584,0.951323165570465,0.00110186663724142,-0.147869804218587,-0.0189550491877619,-0.149958016509297,-0.190402364332985,-0.255706424956917
385,385,-0.159711620258102,0.240809057285014,0.951148563928965,0.007082226858427,-0.137517476301129,-0.0213292317644764,-0.214137697900438,-0.097843547559499,-0.17157983137337
386,386,-0.15955919619055,0.239580289648256,0.950921562155907,0.00942261353839956,-0.124663974124523,-0.0248384431566919,-0.19338620618986,0.0939039059327636,-0.207146530440742
387,387,-0.159303265633968,0.238447654765066,0.950650489977049,0.00986464459754633,-0.109543944150824,-0.0296220019189581,-0.161570719420329,0.290105639635793,-0.188568924916006
388,388,-0.159015016460307,0.237407079600576,0.950367553547786,0.00906219518246578,-0.0935781010316994,-0.0344602794568492,-0.0887505707551444,0.380154029761419,-0.210100116928378
389,389,-0.158765482068146,0.236453801729898,0.950104002373077,0.00810063136845923,-0.0784516714610993,-0.0382783037699754,0.0403750143750088,0.451508671285836,-0.124428585574589
390,390,-0.158625454790647,0.235582333281233,0.949890145604193,0.00749494974973452,-0.067488890584451,-0.0395715487601952,0.0430909932674587,0.53483397655355,-0.039930232643314
391,391,-0.158627241701564,0.234845445377177,0.949732239520502,0.0108317260071855,-0.063713198381965,-0.0386068270192938,0.41638088971075,0.602607970949176,-0.283365015621754
392,392,-0.15872394190796,0.234246424810988,0.949609221301821,0.0108673876145468,-0.0615982034958866,-0.035111078552079,0.485475022687522,0.513580389893406,-0.151782852189868
393,393,-0.158867076120563,0.233704982214892,0.949509645699145,0.00862639393795905,-0.060826316859397,-0.0297247009039958,0.397152304611211,0.625337781530755,0.0588660116621573
394,394,-0.159007847736635,0.23314074100372,0.949421923240033,0.00510748200354574,-0.0605303703521568,-0.0230758435407769,0.226230887782403,0.808322887042845,0.324340155384786
395,395,-0.159097175043282,0.232473256506805,0.949334341371167,0.00163952411037207,-0.060397995586141,-0.0158930553158261,0.0166079271667982,0.899833729397461,0.717079935166606
396,396,-0.159126975466537,0.23164696817349,0.949243826562849,0.00239604504005727,-0.0612066857978423,-0.00812317900762502,0.113275570004726,1.18050962600035,0.584120939811494
397,397,-0.159129499435017,0.230715051900121,0.94915722278472,0.00328562097605389,-0.0638285626350392,0.000875530935259714,0.122454329640754,1.28305515317008,0.680615229799996
398,398,-0.159115952006023,0.229760118122533,0.949077592147951,0.00315975253210269,-0.0679573866033328,0.00947369353649428,0.23031373043399,1.24836154157675,0.814671720492508
399,399,-0.15909749331923,0.228864789435982,0.949008016953082,0.00382341927207648,-0.0689757161508225,0.0167299770381234,0.318250146691963,1.32371229547944,0.74155434419186
400,400,-0.159085254744756,0.22811172648515,0.948951632966702,0.00554903798305811,-0.0622324301687011,0.0215965281691958,0.192099678555951,0.991776982570328,0.425393270314902
401,401,-0.159080473585176,0.22749110548398,0.948911684922096,0.00643155425409552,-0.0563700601914438,0.022585222991937,0.170790174825586,1.11937830277444,0.385518656791788
402,402,-0.159075343603713,0.226947624043778,0.948885532097099,0.00962513022446607,-0.0480538875215235,0.0211281940417436,-0.0212947444802912,1.15786019221422,0.149815232819965
403,403,-0.159067494228824,0.226495801635107,0.948867630523124,0.015222559406291,-0.0373760209062287,0.0184116642609387,-0.265432963440649,1.04040690337365,-0.203367349313097
404,404,-0.159054627050015,0.226150194202655,0.948852529265582,0.0204894307185958,-0.0274834048742091,0.0153949957111875,-0.380339049514577,1.07154095707281,-0.31212808790114
405,405,-0.159034492828225,0.225925378675056,0.948834830794101,0.0234795331588223,-0.0193615157491293,0.0131770289721383,-0.450736499863831,0.970647450894672,-0.269502206071781
406,406,-0.159008644791657,0.225816634834028,0.94881454045011,0.0214932375844937,-0.0132249209700942,0.0118203849623369,-0.331990921013448,0.875825694892783,-0.0799480256032064
407,407,-0.158978579657686,0.225814419143775,0.948795303003037,0.0154385438100321,-0.00782345028815045,0.0106148300754719,-0.178167543741148,0.782543882444072,0.0297358941172768
408,408,-0.158942026980488,0.225926039263406,0.94877721738519,0.00706895402504017,-0.00152087296149619,0.0092781734909567,-0.019899400435463,0.644115230869836,0.0632639458746901
409,409,-0.158896746392534,0.226158694285163,0.948760387922569,-0.0012124100471857,0.00694626990324832,0.00770732212794722,0.0240871825909856,0.52772180719133,-0.0437067794487876
410,410,-0.15884049185016,0.226519428911414,0.94874490487675,-0.00709903801324892,0.0172199268437357,0.00563614670517727,-0.0524000526291186,0.609657571149755,-0.12271921221308
411,411,-0.158775714612761,0.227021906502277,0.948727456264274,-0.00981601751595477,0.0299548435297635,0.0026259724376037,-0.0809476416477832,0.676142670043303,-0.246868625278287
412,412,-0.158703990193911,0.227661324691768,0.948708239209207,-0.0118653177860796,0.0439388238049818,-0.00111349656566777,-0.10312384585408,0.832393720049824,-0.30684217217268
413,413,-0.158621723549214,0.228416937976357,0.948692561099296,-0.012648738748793,0.0587137288646995,-0.00498066071634688,-0.0872615360463079,0.875985101126082,-0.429245573606246
414,414,-0.158525335626042,0.22926807360524,0.948685679087892,-0.0131853697070804,0.0728665636193733,-0.00828160721650693,-0.113796243670828,0.909935661635311,-0.397845222690252
415,415,-0.158411282614094,0.230194149107579,0.948692787607924,-0.0127241800854891,0.0846359698860668,-0.0105579044678147,-0.072681342754973,0.962572718117501,-0.366075199731957
416,416,-0.15825997461173,0.231210883665577,0.94872138735407,-0.0128048235310203,0.0938806526088319,-0.0111971292484029,-0.160126471917553,0.753730936198793,-0.495147424499032
417,417,-0.158073866746705,0.232332020728403,0.948768291226387,-0.0109810000675894,0.101585732008104,-0.0109662161267883,-0.171307063343568,0.69848686798966,-0.554933144878992
418,418,-0.157882520115032,0.23353411084521,0.948822530741349,-0.00768036479856305,0.108767007751223,-0.0102111529799656,-0.16349882959185,0.668773019963587,-0.484111245725111
419,419,-0.15771549474018,0.234793734165418,0.948873014160271,-0.00295134922925626,0.115911056886372,-0.0093824742483818,-0.162309595879183,0.715703129799574,-0.367813993969043
420,420,-0.157602334127469,0.236087500755825,0.948908530006989,0.00179276758752936,0.123881260088647,-0.00889677602913079,-0.108123373732872,0.725719761946988,-0.226941507511306
421,421,-0.157534233477831,0.237420195142567,0.948913672814145,0.0027578521142129,0.134650492501504,-0.00907220142074852,-0.229426048631365,0.62353418791954,-0.302324146341886
422,422,-0.157491587377764,0.238807632247219,0.948895981614876,0.00235420350474239,0.14647534030153,-0.0100495304155857,-0.217516050379864,0.546500818174584,-0.264716380597146
423,423,-0.157487669034436,0.24024283345438,0.948878561521176,0.000250627077268671,0.156843822040915,-0.0105314382192169,-0.241719432712293,0.725641838269558,-0.190839488343855
424,424,-0.157535713661788,0.241718614953677,0.948884482326828,-0.00172951682532526,0.164301807290311,-0.00987964972503131,-0.296490103486006,0.760620790187387,-0.0610072930624932
425,425,-0.157648920343849,0.243227594010213,0.948936782473309,-0.00453031878969063,0.168800284843383,-0.00722523076738508,-0.0541843208971686,0.756251364076013,0.0526373352829832
426,426,-0.157860832014455,0.244823601508196,0.949050594882984,-0.00915136776646845,0.168123929072045,-0.00150450029346643,0.0225029470915684,0.546773375249722,0.443674799867643
427,427,-0.158162556140242,0.246511194542719,0.949210736387399,-0.0147730735732282,0.163385509713488,0.00808458064288235,0.0254339297321743,0.382934509531633,0.755396785271783
428,428,-0.158503595742763,0.248209075381817,0.949394607809851,-0.019645326940176,0.157380238985072,0.0185736370505494,-0.0622466943047513,0.299624308943145,1.0160525988848
429,429,-0.158833485619148,0.249836142566984,0.949579401683605,-0.0218167626003814,0.15194775809119,0.0277871325599273,-0.0875682439781748,0.174887019209434,0.960893564213133
430,430,-0.159101782721975,0.251311470998769,0.949742134316316,-0.0206390543274418,0.148428475192765,0.0329698005776217,0.0678774794991367,0.215484129022864,0.680401174649624
431,431,-0.159324011791294,0.252562664026136,0.949900285207052,-0.0144199444409971,0.14848785932521,0.0336797002389095,-0.0436940129938318,0.392712298919391,0.226498430179393
432,432,-0.15953354630458,0.253643897638058,0.950068879570834,-0.00635406329421903,0.149129476043925,0.0314371070055582,-0.164415988337328,0.486762217065192,-0.156808603865575
433,433,-0.159706837770122,0.254664037005886,0.950221483305627,8.82624413614128e-05,0.149221685431431,0.0269646409101199,-0.183315620512312,0.404229572733756,-0.239776316560777
434,434,-0.159820567318141,0.255731700977314,0.950332066514592,0.00381617603392743,0.148667751389203,0.0212269811545698,-0.241775649179467,0.260173946222896,-0.45551354533148
435,435,-0.159851669079802,0.256955188297745,0.950375072541311,0.00464254331977572,0.145656206636237,0.0148133544584505,-0.197331692079557,0.299263579031818,-0.4615925303043
436,436,-0.159728422733834,0.258416808659408,0.950340618033565,0.00306450903013728,0.142965529324164,0.00665925348175517,-0.144828596551122,0.0654489968259868,-0.547173887551068
437,437,-0.159466491481193,0.260043326735993,0.950247429286803,0.000516206164089318,0.141612293599694,-0.00369257575280362,-0.0925831447826539,-0.0911146045301328,-0.674887376673299
438,438,-0.159174093387438,0.261709746810113,0.950112925667464,-0.00117597952204542,0.139142343672742,-0.014508639079359,-0.0822928219704492,-0.263785698847321,-0.846285044561448
439,439,-0.158959496626586,0.26329165189752,0.949953910759256,-0.00143737047199239,0.132952649065953,-0.0241073022371709,-0.0311325931473795,-0.25715418007488,-0.935429500071205
440,440,-0.158931024369872,0.264665229130795,0.94978648848666,-0.0018703604383909,0.123480993406103,-0.0309037182923803,0.0914666238297177,-0.236038926786891,-0.939691679681166
441,441,-0.15916049211155,0.265782642407367,0.949584294618261,-0.00375057796127063,0.111350463434648,-0.0351474656986085,0.286032579242335,-0.155191971776776,-0.719748993021652
442,442,-0.159576469435103,0.266726161204621,0.949337536721889,-0.00707492782949925,0.0972555096687892,-0.0380024849118433,0.40975188199966,-0.277293745310487,-0.444308506905315
443,443,-0.160072123201877,0.267567811686612,0.949086096805904,-0.0115308935554343,0.0821371393816265,-0.0393202876091071,0.382149002360461,-0.41378331660613,-0.0346355070014759
444,444,-0.16054011676492,0.268380106154089,0.948869077502673,-0.015896355562212,0.0698699326342772,-0.0387209777652326,0.312713286325558,-0.586051822626241,0.334419495349223
445,445,-0.160872563696509,0.269236051702578,0.948724799467127,-0.0198441940559153,0.0625674179710655,-0.03574099294718,0.273538651309473,-0.852001903104918,0.568916264606963
446,446,-0.161047320070944,0.270142381908957,0.948658328794749,-0.0239149177409958,0.059084990806865,-0.0293752959854077,0.269991638654489,-1.00969672500492,0.678980058352878
447,447,-0.161135961280452,0.271051040920152,0.94864333259468,-0.0277547029813371,0.0567959996986636,-0.0198093567897902,0.359579731889674,-1.11697452918247,0.777973781656507
448,448,-0.16117070059864,0.271953214924654,0.948670454214707,-0.0297459003051062,0.0549054265794257,-0.00871320330087487,0.400258570140024,-1.21356216973069,0.712097386784038
449,449,-0.161183661837284,0.272840128843665,0.948730265945369,-0.029626168149777,0.0525509056958822,0.00235783169955812,0.440925036357711,-1.28365346206797,0.605765327716403
450,450,-0.161206907947473,0.273703022106786,0.948813261582416,-0.0283296680380297,0.0494762163496642,0.0117559519615793,0.502401072536558,-1.34288942097059,0.610289261966513
451,451,-0.161263728119859,0.274570384218393,0.94892952990118,-0.0260654317501329,0.0455177206861204,0.0196939152252602,0.596503896105519,-1.29063596887572,0.660436570270011
452,452,-0.161332291206625,0.275448629347474,0.949084764524104,-0.0235763503140081,0.0411969234189985,0.0271464741000088,0.590009536502133,-1.25245375148649,0.672290823119294
453,453,-0.161376994104158,0.276295706295729,0.949262535368262,-0.0212368517913549,0.0361404250901914,0.033619586819069,0.426451736736249,-1.16151204193547,0.527970789482605
454,454,-0.161362265691002,0.27706932367717,0.949446117305637,-0.0183660996230461,0.029985773029475,0.0387183094636411,0.213328338130843,-1.07450566309585,0.348125027436015
455,455,-0.161252552091042,0.277726976706667,0.949618595258896,-0.0139278318832275,0.0230567165287059,0.0421004835788882,-0.118003593745756,-1.06529923796935,0.11342669769494
456,456,-0.161002250668762,0.278284487154287,0.949787436109104,-0.00719503730851162,0.0163913619190622,0.0436641286250092,-0.342342573715829,-1.11924856384359,-0.0594456184407235
457,457,-0.16063488516594,0.27877000662581,0.949963003861892,0.00144733402212182,0.0105738999617472,0.043673734778297,-0.409034901144037,-1.21523106434398,-0.106107545966931
458,458,-0.160218663627079,0.279159329422526,0.950132683616945,0.0101313001058721,0.00541944218882665,0.0425009387040007,-0.338352963110067,-1.34115952926372,-0.141932132272108
459,459,-0.159821882448441,0.279428197307937,0.950283938250192,0.0173381345446179,0.000528989069695415,0.0404625466792845,-0.191955839025171,-1.41498958093947,-0.0451237066563053
460,460,-0.159512914020661,0.279552353704578,0.95040436520501,0.0212785048397408,-0.00474783239289196,0.0379502737850301,-0.098512625756159,-1.35015984706614,-0.0494825224591748
461,461,-0.159293514821313,0.279503381255845,0.950496669523506,0.021322867374035,-0.0109497957335591,0.0348937882099185,0.0708615185112175,-1.12882808490878,-0.0276438056379894
462,462,-0.159118315060866,0.279297189116975,0.950569372556034,0.0190874378052959,-0.0184642039640666,0.031235251584674,0.123519705819204,-0.939983338275001,-0.140902249424555
463,463,-0.158984995144754,0.278976114388143,0.950619000304095,0.015488138705983,-0.0264486213706988,0.0273645511853179,0.0717267859088369,-0.719607381178188,-0.261470829911574
464,464,-0.158891155181271,0.278582577315159,0.950642068809067,0.0110731557127248,-0.0346681642293828,0.0236268882802204,0.0508129324409194,-0.515116319860877,-0.276028344751079
465,465,-0.158834295899434,0.278159081818634,0.950634979091301,0.00762838081741698,-0.0417199435365416,0.0202167539042273,0.0200223759940866,-0.504651705931953,-0.307493626201675
466,466,-0.158806988372885,0.277714954828059,0.950576605149555,0.00520286597068461,-0.0466684043056947,0.017192107014434,0.0122966507700453,-0.501313224488555,-0.317135729833645
467,467,-0.158810939057168,0.277222122822167,0.950470494813105,0.00295280850496268,-0.0494464050402642,0.0143533133240519,0.0229117222413774,-0.609673808873594,-0.245467472896489
468,468,-0.158857280269707,0.276666963829542,0.950349693566274,0.000871801251312246,-0.0517451464136276,0.01173432302124,0.00265301369263734,-0.614718421679054,-0.216340613221577
469,469,-0.158957155933563,0.276035669538361,0.950246857214198,-0.000854192723492221,-0.054990292276499,0.00900912273271818,0.0127806999735092,-0.706025979944783,-0.143626793252164
470,470,-0.159121730539887,0.275314194983811,0.950194194118468,-0.000624713032279497,-0.059686165675433,0.00620287357048619,-0.12313210483823,-0.767924925814692,-0.205666820316733
471,471,-0.15939596191592,0.274510416180748,0.950202075728038,0.00121276968794892,-0.0679419657595348,0.00289666374612868,-0.185817819311608,-0.799736409608261,-0.220554903858444
472,472,-0.159772536647493,0.273633418939685,0.950249712037688,0.00469362987571792,-0.0787686283102986,-0.000708585659217269,-0.272041111021421,-0.753710877901139,-0.251727923821168
473,473,-0.160184147013423,0.272670938229111,0.95032182754072,0.00843235456968287,-0.091149626542291,-0.00421434764801549,-0.28709449814393,-0.669592992793443,-0.318401153470575
474,474,-0.160563368670295,0.271610950674327,0.950402584227812,0.0112714363573633,-0.1028806598881,-0.00719863417593278,-0.293079758886673,-0.623349858061436,-0.361709476482012
475,475,-0.160842674348694,0.270441676648879,0.950475598148681,0.011089309578878,-0.113267716772991,-0.00930315076676871,-0.273798157251546,-0.495873437032014,-0.320740958368682
476,476,-0.160986674509811,0.269143947309808,0.950539812296406,0.00727847268933435,-0.12564961806851,-0.0103277038460999,-0.323746170863344,-0.337934567534692,-0.251152663911848
477,477,-0.161040284425679,0.267725845962664,0.950605503214976,0.000821442965522878,-0.137239993633318,-0.00967821503536877,-0.333093954186182,-0.402767710092042,-0.135692549891545
478,478,-0.161056362640556,0.266216584735781,0.950673056131977,-0.00826014870243262,-0.146953388468108,-0.00850909381339066,-0.194111534967711,-0.411411320668726,-0.0299954442291947
479,479,-0.161087746593909,0.26464533017627,0.950743050337917,-0.0167638722992255,-0.153828396809153,-0.00774678558213083,-0.196782100879829,-0.482960569273144,0.270179917561422
480,480,-0.161187245039639,0.263041216033069,0.950816311904237,-0.0215021531847406,-0.159160716313266,-0.00741645149952026,-0.180375004686215,-0.51824200065921,0.269737193235181
481,481,-0.161381746970358,0.26132857029785,0.950918331106831,-0.0231282041864473,-0.164333375312266,-0.00729961156394467,-0.166136732365165,-0.474981175860844,0.10770398188252
482,482,-0.161635866554285,0.2594880138883,0.951048950120717,-0.0232870439718561,-0.168878810467624,-0.00674310867504583,-0.082557064438247,-0.498084341019116,-0.0501767589294416
483,483,-0.161909077261038,0.257633100725052,0.951170624846316,-0.0230013977365705,-0.171429081695504,-0.00619468617816033,-0.253805919491842,-0.41287917056785,-0.191993741900123
484,484,-0.162161000638464,0.255877414817319,0.951245667488455,-0.0214236988407746,-0.171997492444051,-0.00615026017868011,-0.372345567665278,-0.365236481068299,-0.169846626878884
485,485,-0.162351405711431,0.254334641707032,0.951236330504595,-0.0192176796687106,-0.170971089373147,-0.00737993077066476,-0.380114034583021,-0.378336899352621,-0.0854173015936339
486,486,-0.162452810343452,0.253053593236751,0.951103999138875,-0.0172599583339348,-0.165177352333791,-0.0102727132196404,-0.345334496450679,-0.386629187104504,-0.136098203113155
487,487,-0.162492230521561,0.251958943016208,0.950875081221817,-0.0147258800733028,-0.15503486437123,-0.0145527128948798,-0.269543881356729,-0.304519825712849,-0.170526671034491
488,488,-0.162511312857582,0.250978208116197,0.950609023824939,-0.0124260136982729,-0.140784816121877,-0.0195500679636188,-0.160405858655314,-0.293371500826837,-0.360079872700158
489,489,-0.162551744447091,0.250038764239678,0.950364496089939,-0.0120111474063917,-0.122867430834053,-0.0246592500999611,-0.0744728576097364,-0.422595527519506,-0.478265276286084
490,490,-0.162655324595174,0.249067817780296,0.950199279000708,-0.013427932890193,-0.105456346589357,-0.0292944990165286,0.00526318853853376,-0.379876137391191,-0.609247764986118
491,491,-0.162804145243948,0.248091567742803,0.950129748554877,-0.0167663320494272,-0.0930461842328147,-0.0346564049315429,-0.0340668639017999,-0.265157462452701,-0.689740176442217
492,492,-0.162971275808961,0.247159115385613,0.950117829843577,-0.0209383003880729,-0.0852785952741248,-0.0407999858257884,-0.0811288162520083,0.0460509510626263,-0.64682608440656
493,493,-0.16318491886669,0.246231631800507,0.950138582764619,-0.0253020233284944,-0.081234485206044,-0.0463638005802586,-0.00493892781573794,0.297855560996146,-0.437276066036647
494,494,-0.163472809622369,0.245269902925678,0.950166395690042,-0.0283687603007311,-0.0798383801407071,-0.049771228460862,0.220194421445289,0.605236011550625,-0.0783960683599365
495,495,-0.163862100248837,0.244234303704095,0.950174951178557,-0.0310331487249992,-0.0798659153350745,-0.0495311788033104,0.431331364897525,0.778800704696781,0.26895711459281
496,496,-0.16442580701815,0.243094808155305,0.95017203037069,-0.0296980629296548,-0.082737134419357,-0.0451848849062882,0.918594760091451,0.970933726234666,0.101406967173998
497,497,-0.165146045551602,0.241877593302005,0.950174415883382,-0.0308281861908613,-0.0853583886982561,-0.0363977215467764,0.929769215295763,0.938772637203484,0.189918801871088
498,498,-0.165912843238271,0.240626974455552,0.950168364454437,-0.0320814868094949,-0.0887529576210549,-0.025241336120953,0.772365992926905,1.013502013319,0.350497904366474
499,499,-0.166615815896459,0.239387181879307,0.950139651738713,-0.0344537158835072,-0.0925206240654928,-0.0135574544537146,0.505901948371294,1.11664911828532,0.568094813571123
500,500,-0.167144204349588,0.238202364423981,0.950073699093423,-0.0375965347854795,-0.0944047853054031,-0.00319660889420549,0.407132911538874,1.27038274326503,0.943362772316914
501,501,-0.167468736297231,0.237068979270076,0.949946918955662,-0.0378697089709577,-0.09236837453429,0.00582083697112522,0.553464185502615,1.26900351990109,0.777544193995354
502,502,-0.167662545462182,0.235957124113241,0.949767550302188,-0.0391202437365372,-0.0878973465560081,0.0147924863083009,0.732844025510598,1.13813390717293,0.78496819953912
503,503,-0.167768194474222,0.234871257797158,0.949568844584028,-0.0369148085308092,-0.0814623288538342,0.023728384798419,0.492552636709295,1.73265768850432,0.655016340732066
504,504,-0.167828208080681,0.233815890570656,0.949384285297165,-0.034623834198534,-0.0718345402601058,0.0311504309973319,0.462465431877611,1.21865420154143,0.409518591609821
505,505,-0.167885089316526,0.232795695368471,0.949247502137806,-0.0330465525061259,-0.0671882839571867,0.0360145113678548,0.273487466073046,1.4046934205162,0.395121100983255
506,506,-0.167924691182136,0.231755320310836,0.949163932259301,-0.0299945432124599,-0.0612340923370731,0.0384474333740185,-0.147906796343363,1.15574805075141,0.109515945668756
507,507,-0.167918128946223,0.230691571853281,0.949110895979123,-0.0267766841908352,-0.0556635457440575,0.0385419650561159,-0.311530279364521,1.05714715823037,0.0378898216275212
508,508,-0.167885944264701,0.229687558285445,0.949079963917289,-0.0225558058894768,-0.0509545806347112,0.0369579902548444,-0.409347352540211,0.938342189081347,-0.0990049694321209
509,509,-0.167848854669277,0.228826366463076,0.949062744456658,-0.0190810937924505,-0.045258019796458,0.0344778720104369,-0.293423656859986,0.741252096443604,-0.144010912122155
510,510,-0.167827697402315,0.228190969630107,0.949050865761626,-0.0171316798165577,-0.0384708675160135,0.0318387454983751,-0.145966842208346,0.712208957270064,-0.213720621233745
511,511,-0.16783492396619,0.227815989995197,0.949048452221855,-0.0159614510905013,-0.0304618675599903,0.028583351758344,0.0154038803282291,0.594677115857532,-0.247275311210583
512,512,-0.167856761323008,0.227646335269712,0.949061212484114,-0.0157353985480393,-0.0211078428201402,0.0242769906381199,0.0816696244022573,0.523410733810067,-0.29971700797351
513,513,-0.16787475284377,0.22763019230545,0.949083153502559,-0.0157036115093615,-0.0111346750458341,0.0196246898561328,0.0688388848963094,0.493140629489551,-0.283253599566982
514,514,-0.167870405304528,0.227715595030618,0.949108247287032,-0.0152428216743874,-0.00184997328008267,0.0153026486336386,0.0140099079736967,0.471690429825624,-0.24485334941895
515,515,-0.167825163326509,0.227850402096097,0.949130402819758,-0.0145117191627731,0.00615391205506598,0.0121781162344057,-0.0644378799377545,0.421939374756401,-0.174190939827932
516,516,-0.167755445458807,0.228048583896384,0.949151664140408,-0.0140236974003274,0.0128815406839075,0.010435122199034,-0.0401311856963879,0.42290240206582,-0.0831284217893492
517,517,-0.167673597077714,0.228344542078447,0.949176342570487,-0.0131184549613727,0.0188185155799725,0.00967942387443809,-0.0651128602664783,0.409051827354781,-0.020675486082758
518,518,-0.167554916165531,0.228716793268649,0.949201596303182,-0.0113466946979971,0.0240722518234007,0.00951520684778328,-0.0569120504475499,0.448618891277664,0.040899737185802
519,519,-0.167374756942823,0.22914410413339,0.949224438187959,-0.00835446997376242,0.029371681257186,0.00958462086363496,-0.0708767679639096,0.523478786159182,0.0835319351899574
520,520,-0.167108545300602,0.229605504331784,0.949241726839316,-0.00436941139279283,0.0361594629523003,0.00955816046995562,-0.120701135723908,0.484493210824797,0.0361530964252614
521,521,-0.16673569369388,0.230097930861468,0.949246547562944,0.000134239309807227,0.0439452547442308,0.00935975162789079,-0.149279365184644,0.588139897511821,0.040211276191705
522,522,-0.166272641694723,0.230635559236213,0.949240898129186,0.00659855959673432,0.0523866554047193,0.00905916794668869,-0.208932060603884,0.535363400909758,0.0295695267710675
523,523,-0.165750394300546,0.231223402458452,0.949234934169036,0.0142753324313465,0.0609144703566741,0.00856507547186347,-0.205723142137103,0.51094414415153,-0.04929013557941
524,524,-0.165199945770767,0.231866418327794,0.949238858527144,0.0210390680705559,0.0692411742369859,0.00797750784973115,-0.166048674542056,0.509172629231672,-0.0215396769166052
525,525,-0.164652281940421,0.232569515802274,0.949262919463527,0.0268908907109056,0.0768991005613602,0.00716872507043342,-0.0757494155795712,0.472313723815282,-0.00970531730866442
526,526,-0.164088500710596,0.233326353596845,0.949310578347283,0.0321631504721347,0.0844481272900798,0.00617829840635443,-0.0171075269659113,0.470896586725818,-0.0694534204256172
527,527,-0.163487974060502,0.234133706651509,0.949375033768137,0.0370687337048182,0.0919812185981524,0.0049895497746988,0.0574360386557179,0.494671806987436,-0.0875117318703721
528,528,-0.162879088693054,0.235001080149672,0.949451194766694,0.0418307415088647,0.0993760473059644,0.00373364311707116,0.0481099598937475,0.502187737333286,-0.164954689383272
529,529,-0.162290224817872,0.235937923602471,0.9495339990199,0.0454400697601044,0.10608325950468,0.00239825987694727,0.0292109807049113,0.533669483761914,-0.200617754946926
530,530,-0.161749755947462,0.236953628369977,0.949618422105176,0.047247726607228,0.11178174007462,0.00104981098393113,0.0178331266831301,0.562049748859308,-0.126477701920084
531,531,-0.161238082449029,0.238062016049832,0.949718112468595,0.0470448231928285,0.119755372189543,-0.000136971121650124,-0.0578588430352382,0.60005061555169,-0.359077615914016
532,532,-0.160736301959698,0.2392566934235,0.949836563506512,0.0455277570107243,0.128381258147549,-0.00137353876594194,-0.0409886571276962,0.512325161749125,-0.533316948721089
533,533,-0.16027383458338,0.240516723795015,0.949953572205238,0.0436442418245912,0.135910163578865,-0.00258939540449739,-0.0966911263002345,0.51911700313278,-0.546462978979922
534,534,-0.159880108007601,0.241821218614061,0.950048959439803,0.0412806537200753,0.14165174182325,-0.00368677029511715,0.0010248238682701,0.557432188183326,-0.518529220832637
535,535,-0.159584556573252,0.243149339076305,0.950102576149927,0.0406962985842503,0.143336856918205,-0.00498811279262708,0.0307772495102026,0.575234394122708,-0.334662551526269
536,536,-0.159407202260979,0.24452472058929,0.950093086960574,0.0383850641052253,0.1427409797339,-0.00649990237930393,0.0935555634637907,0.60628237964458,-0.354042995050888
537,537,-0.159328472210975,0.245961259362817,0.950034364925672,0.0356851444711362,0.13873416366865,-0.00867981067111281,0.246573797526628,0.508196839230288,-0.293379140900209
538,538,-0.159318381148733,0.247423527756609,0.949958903016853,0.0327707901737025,0.132831381638722,-0.0105803699101222,0.193016351358981,0.45807173429885,-0.178018706344849
539,539,-0.15934690384344,0.248876064434716,0.949898904352866,0.0282105171261113,0.126621723942681,-0.0112763265014457,0.159568169210404,0.421058418257307,-0.0280511312946048
540,540,-0.159383979570559,0.25028338297689,0.949886290663404,0.0220395474519545,0.121489005596166,-0.0106870070033456,0.0801054391662193,0.264795398556398,0.295366479233731
541,541,-0.159464218678092,0.251647753311466,0.949933869535385,0.0144702649399044,0.115423026500604,-0.00667287092823596,0.21045858901223,0.192796974468625,0.568397131011081
542,542,-0.159607590159036,0.252992753202968,0.950020170407158,0.00709087129883643,0.106968558863466,-3.3984977435152e-05,0.254726652168941,0.0997822296400713,0.64428500473427
543,543,-0.15976209595775,0.254314920034088,0.950125593198914,-0.000376630974782292,0.0984461742191243,0.00718053169407598,0.209563453415066,-0.0238341714188334,0.635110914759948
544,544,-0.15987580038141,0.255610867534764,0.950230664919291,-0.00601863070956959,0.092611770531619,0.0125811517466493,0.186129095939314,-0.105064307512877,0.489443893277162
545,545,-0.159896823483204,0.256877268117282,0.950316064104108,-0.0083024900888419,0.09025316531709,0.0138590374133888,0.14269529613637,-0.0424255646133996,0.152249760971182
546,546,-0.159799079978604,0.258099577497811,0.95040314142402,-0.00437079153261777,0.0933618792761069,0.00978015643157066,-0.0391046702909599,0.0393156981756924,-0.297116329712089
547,547,-0.159617250019295,0.259280291077464,0.950505090775651,0.00415163326687742,0.100610834176169,0.0019345995951808,-0.240319205755591,0.0357219870735906,-0.633798754851338
548,548,-0.159390608749171,0.260441439895657,0.950590604657532,0.013045699105271,0.109144478133392,-0.0078475247660701,-0.318305566335924,0.0215889735633865,-0.813977333826514
549,549,-0.159158413961187,0.261604700439524,0.950628539130494,0.0204337518360529,0.115359550744309,-0.0177120909197158,-0.35109964929914,-0.0150325813714193,-0.935831954779061
550,550,-0.158959947174308,0.26279133790734,0.950587928360254,0.023172504462824,0.117547713099505,-0.0258869330120908,-0.250986454838261,-0.141772926528192,-0.895455708791157
551,551,-0.158769820733584,0.264059294292264,0.950435638724623,0.0202512103089474,0.114603780869609,-0.0333816383600461,-0.11382737466234,-0.171484543064727,-0.883529324746106
552,552,-0.158562074449857,0.265393177549958,0.950193777795555,0.0140251174898028,0.108668529199705,-0.0414196330039421,-0.0031109592945212,-0.259842186587615,-0.870558673114324
553,553,-0.158375180650111,0.266704344907385,0.949913912869436,0.00667058655962384,0.100029299095088,-0.0484686178579665,0.0767440801653625,-0.246263444131585,-0.719091114020029
554,554,-0.158247551624272,0.267904862108732,0.949646862977082,0.00025140058834397,0.0901503158948776,-0.0530783219440638,0.213558877778637,-0.135623333155897,-0.440017057213534
555,555,-0.158217490191581,0.268907555065931,0.949442632348103,-0.0038310155694059,0.0813597720204106,-0.0538358984352424,0.228294543788906,-0.150734208626931,-0.100126058885542
556,556,-0.158367785498583,0.269643725836769,0.94930230737949,-0.0037782800328417,0.0733018909194215,-0.0493425529389201,0.17917080000364,-0.0606941472466758,0.277340199002829
557,557,-0.158673291537421,0.270171713154937,0.949192449912428,-0.00282207224208431,0.0655434144512902,-0.040492225713689,0.210960455068604,-0.193882753387083,0.687362603942102
558,558,-0.159010084215387,0.270595628059939,0.949110413859948,-0.00149335648660295,0.0584734742636747,-0.0292455098391923,0.240422526622838,-0.336045058623819,0.940215145434844
559,559,-0.159253912999373,0.271019825597394,0.949053258234164,0.00129569610529122,0.0533899460707472,-0.0178187017851222,0.226591924371235,-0.540651242309496,1.02533189876761
560,560,-0.159280198092465,0.271548853970894,0.949017767757812,0.00485716266124036,0.0505208922461034,-0.00822897000533005,0.278262536431213,-0.754052280261784,0.982590305996022
561,561,-0.159025000329051,0.272217792980636,0.949011722274952,0.0101956279465549,0.0506764697546142,-0.000159578788060887,0.230435633307215,-0.93970565376884,0.81554018144983
562,562,-0.158570979127883,0.272957670807619,0.949036505283779,0.0170820550160797,0.052598155976644,0.00782930533782005,0.213516521241154,-1.04618229317853,0.664760785887465
563,563,-0.158013185239269,0.273716882531855,0.949078946909483,0.0238931604491922,0.0547338519607088,0.0153305084440704,0.25726653967842,-1.10432772028726,0.533466987091297
564,564,-0.157446635356863,0.2744436142687,0.94912572944471,0.029499548913312,0.0556518180887662,0.0217695383539832,0.344340874750863,-1.05361319082395,0.446284484709112
565,565,-0.156966333964237,0.275085865370331,0.949163443516003,0.0332723606255522,0.0541838427927891,0.0263004242178449,0.43625016236069,-1.05016985609069,0.452023393463886
566,566,-0.156587932118287,0.275649759074271,0.949184250957562,0.0363552670714026,0.0492967690525108,0.0285738092798171,0.40135204348999,-1.01261610944163,0.368471023563543
567,567,-0.156247754326028,0.276169948531738,0.949196234465637,0.0392884208303799,0.0407762417823267,0.0291855536959371,0.238458452575692,-0.959498890972278,0.294920683728757
568,568,-0.155921881701303,0.276637060950126,0.949209842006399,0.0425005631095321,0.0298720322841293,0.028774047505297,0.0242811050545135,-0.995321290785271,0.0833014684784234
569,569,-0.155586459217721,0.27704168653349,0.949235561973074,0.0455743762995821,0.01885176769888,0.0278668845510496,-0.162963273707725,-1.0428498532525,-0.0313760556291047
570,570,-0.155217677922964,0.277374400033594,0.949283946816872,0.0479979109033376,0.00974895912897903,0.0269140107728412,-0.182557429310258,-1.13848903921304,-0.0736039771311644
571,571,-0.154780653115784,0.277644518004705,0.94936280709086,0.0501589134543977,0.00250644510261262,0.0257951268205631,-0.216786572196805,-1.1997224299458,-0.10788356164319
572,572,-0.154291279844471,0.277858142475704,0.949464837746547,0.0521481162001404,-0.00451529530071252,0.024226265570092,-0.101682008542181,-1.21776861474833,-0.145911879594328
573,573,-0.153801955216171,0.278001057252915,0.949578058236627,0.0530072502148706,-0.0111562850322881,0.0223050627465666,0.0407002116322002,-1.03682473601789,-0.102896672780231
574,574,-0.153365071416804,0.278059110651029,0.949690572807476,0.0527088899817783,-0.0172681707780455,0.0200741318839419,0.108853599744402,-0.927209695545373,-0.0876065635919762
575,575,-0.153032994203452,0.278018238510659,0.949790538967048,0.0502412469837126,-0.022564607625585,0.0175634627285135,0.088364101135853,-0.780382052815588,-0.110878320105399
576,576,-0.152816458936898,0.277869377511787,0.949879177318054,0.0458764844359872,-0.0275967072544625,0.0145833417509041,0.0626136978184012,-0.579164444049,-0.224932672704404
577,577,-0.152680648196946,0.27762199557751,0.949964829427984,0.0401682391997085,-0.0329232383675542,0.0110581681854136,0.0176383484663369,-0.447145367242887,-0.328316742147303
578,578,-0.152609552010006,0.277289885026722,0.950046318846285,0.0334739258029908,-0.0381529682377244,0.00751397737462205,-0.0260803022241699,-0.337976274077216,-0.374474817734771
579,579,-0.1525871370922,0.276886796216164,0.950122371910394,0.0264073523469367,-0.0430879725923702,0.0044055833871589,-0.0658486124637064,-0.404642844425648,-0.354820510645061
580,580,-0.152597345914082,0.276426420011191,0.950191570099399,0.0191273993561036,-0.0483233571885798,0.00223006286902137,-0.0356829236047272,-0.42370369659774,-0.320077103694122
581,581,-0.152683296862527,0.275912207083229,0.950244159053516,0.0117958965580018,-0.0541391535072521,0.00134248697307972,-0.0156758926205691,-0.485753624342553,-0.260902731168903
582,582,-0.152855731743582,0.275335161689403,0.950281585077038,0.00366960609776939,-0.059728322308254,0.00132976020030238,-0.0247471497086321,-0.580217093214184,-0.176872082976263
583,583,-0.153049997723249,0.274690180578185,0.950318973147156,-0.00389396662836759,-0.0656404525483751,0.00178598987486904,-0.0696644253931973,-0.656541668700391,-0.0352996899174535
584,584,-0.1532014284928,0.273972040872199,0.950371258644741,-0.00885370088027461,-0.0725272959480468,0.00245007149689443,-0.164536019191855,-0.770737508540177,-0.00708537224034841
585,585,-0.153245344355301,0.273175393650788,0.950453168870611,-0.0104179542648979,-0.0808262188409242,0.00300065188880647,-0.232081915596079,-0.72699952699259,0.0352893280873327
586,586,-0.153151637384126,0.272317083384566,0.950592281239456,-0.00736839880126185,-0.0908139746262121,0.00335968675107191,-0.323861543217998,-0.68846422591466,-0.0316713174364331
587,587,-0.152963419882536,0.271400469635621,0.950778833828828,-0.00127033945626961,-0.101695404025706,0.00374743441388364,-0.273686360945847,-0.651755360730925,-0.0848136209535354
588,588,-0.152725819832166,0.270399970781279,0.950971331622557,0.00520234235845291,-0.112565590689588,0.00398879546259894,-0.224276915099829,-0.594046194478803,-0.0561136493677766
589,589,-0.152483956687725,0.269290116816334,0.951128224005779,0.00980331126249785,-0.122039222113785,0.00420407811551271,-0.205834227270201,-0.587616350934901,-0.0707202657978567
590,590,-0.152282943635093,0.268045547694329,0.95120791534962,0.0121165522993073,-0.130440383531427,0.00459408880018871,-0.321534257675177,-0.591065144607398,-0.155634563514996
591,591,-0.152098614186109,0.266613417338914,0.951184945344363,0.0100846330077469,-0.138515768616746,0.00499386307755371,-0.247132427895772,-0.611324337581588,-0.125763229017437
592,592,-0.151900849495117,0.265010747047607,0.951087004609967,0.00432192095196708,-0.14549124396854,0.00537466534803549,-0.165481798095786,-0.639421465561487,-0.00616653023650067
593,593,-0.15172583029025,0.263316987096121,0.950952146020583,-0.00354428456313806,-0.151330520370303,0.00543643279372282,-0.0512103325636015,-0.580737483143877,0.114360654330645
594,594,-0.151609743690448,0.261611497966986,0.950818352097163,-0.0101669993065722,-0.157505968119508,0.00504780408412887,-0.0758399710468654,-0.435625227259362,0.0996868609194843
595,595,-0.151588785976607,0.25997355454614,0.95072353849118,-0.0148389052776912,-0.163582725519568,0.00394823582204457,-0.0689806346976347,-0.397171043028239,0.0191466224751157
596,596,-0.151706883355339,0.258441979240877,0.950678850058158,-0.0165654762982799,-0.167243989487619,0.0015973007260613,-0.152190950139134,-0.476306800743999,-0.0780102811540247
597,597,-0.151939862644389,0.256963731152421,0.950658824627655,-0.016575472825271,-0.168746996026102,-0.00181124861461837,-0.270040716489873,-0.511547738504661,-0.168078900779681
598,598,-0.152221811027301,0.25548033739586,0.950646461700392,-0.0155180167552808,-0.168503847761086,-0.00546677513711876,-0.302720915906944,-0.549960103103693,-0.275482912974157
599,599,-0.15248685799632,0.253933469174015,0.950624817442656,-0.0147444513293321,-0.168627836063166,-0.00858843550521999,-0.311261487993206,-0.460324588243571,-0.405742558333956
600,600,-0.152669172587774,0.25226494471243,0.95057700882945,-0.014865567729258,-0.170732567597816,-0.010697374115998,-0.288952220118343,-0.448270942415651,-0.44699793027127
601,601,-0.152741440646213,0.250409912070093,0.950492244152063,-0.0155795235909277,-0.175311739419598,-0.0108649717765105,-0.0825435219846482,-0.271154045779451,-0.295279998910644
602,602,-0.152747602342855,0.248407447023279,0.95038184201676,-0.0171868649455505,-0.180169096616324,-0.00961528993552647,-0.0598859035708615,-0.207723936555231,-0.141073579694564
603,603,-0.152728757895442,0.246355238070108,0.950262086128522,-0.0174281026412544,-0.186053165605955,-0.00787090757212677,0.0555601386909839,-0.0454061705692778,0.102167122000898
604,604,-0.152726046740244,0.24435080689661,0.950149232522684,-0.0173080271618282,-0.189853928569542,-0.00645478743056948,0.169989016610271,0.0220610170693661,0.307830823171934
605,605,-0.152780649537189,0.242491561980904,0.950059561901011,-0.0158846984474493,-0.189729214302126,-0.006150286769295,0.149295885950076,0.182384579835415,0.397538491388451
606,606,-0.152926644998055,0.240780227065655,0.950009182950436,-0.0122593873576476,-0.184550594706002,-0.00700285265734324,-0.0761363342886634,0.176374138917651,0.237216075622523
607,607,-0.153136703266892,0.239151930738748,0.949987554752791,-0.00807414745302425,-0.17482630371944,-0.00842624143158558,-0.251880372173535,0.104261498658003,0.0955196873231892
608,608,-0.153359965646637,0.237602736739487,0.949971034140276,-0.00377604740290835,-0.161972282792917,-0.0103247618258186,-0.374861214568158,0.0901884664360813,-0.122037312750002
609,609,-0.153545657218658,0.236128762917109,0.949935891549505,-0.00100702377725368,-0.148305223869875,-0.0126330579710841,-0.316168112329732,0.020375274665529,-0.320436084176544
610,610,-0.153643099989028,0.234726143905666,0.949858247752016,6.54595178208516e-05,-0.13541104272548,-0.0152691703811786,-0.175008608517534,0.0692034582845618,-0.426665046384886
611,611,-0.15360430821717,0.233403656742447,0.949726543050222,0.00394111653804208,-0.125937907565104,-0.0196120914692283,-0.0200731957644245,0.156899440513734,-0.881836091034101
612,612,-0.153463589537369,0.232164421785831,0.949557141353242,0.00500180928532003,-0.116062516080127,-0.0250928542063544,0.0975249849082973,0.274748586256954,-0.987959269875013
613,613,-0.15329363754875,0.230995953754068,0.949367719797582,0.00405945454730294,-0.107019739042687,-0.0304578790028159,0.0501926706537072,0.40768796356671,-0.82802519222684
614,614,-0.153166927705826,0.229885553555162,0.949175687565552,0.000571522242040848,-0.0993692279764675,-0.0344368029002827,0.146601771200576,0.499822198949074,-0.344195658474353
615,615,-0.153155695869043,0.228820291460806,0.948998183431819,-0.00409597239462235,-0.0929823618613908,-0.0358381756754161,0.133592778967082,0.616447592240007,0.192737245715505
616,616,-0.153290707335974,0.227817017523471,0.948833355465461,-0.00499229693817132,-0.0888974511515138,-0.0349937777759419,0.267937403606833,0.573900793694217,0.293025009480401
617,617,-0.153524015361923,0.22688456583663,0.948669662669415,-0.00481652105810693,-0.0860045917296081,-0.0321414663729854,0.155061048895842,0.599262207472846,0.316266237409139
618,618,-0.153809371776767,0.225997507065312,0.948509294068687,-0.0040703072738965,-0.0840439605972159,-0.0277513856871047,0.0391313676861861,0.727923853085352,0.352339266469393
619,619,-0.154100193209377,0.225130022181771,0.948354175932601,-0.00307564537163119,-0.0823281623598372,-0.0222796204240418,-0.0198217825241525,0.850715213531085,0.333490360479449
620,620,-0.15434957390512,0.224255959281088,0.948206013069593,-0.00382292336131931,-0.0798276928309597,-0.0164613955996916,0.10117516567683,0.981635813315693,0.42592778361375
621,621,-0.154555880133574,0.223360515118972,0.948059651110524,-0.00660989073298258,-0.076543604856336,-0.00942628344434998,0.201036087518952,1.0745947372531,0.539346400328836
622,622,-0.154749817488314,0.222460501179307,0.9479132957632,-0.0109155523448375,-0.0728810663088964,-0.000746845723631292,0.314808343350436,1.23705223305309,0.640923371236685
623,623,-0.154932845147021,0.221577050966742,0.947773608610229,-0.0161754391737529,-0.0684913052513211,0.00803738247723155,0.39662729508794,1.16455894513128,0.698980183108949
624,624,-0.155106500504946,0.220731375172266,0.947647303949895,-0.0211456138902186,-0.0630886215819411,0.0157120201684769,0.412615394453313,1.08585761491513,0.677277990667472
625,625,-0.155272386191553,0.219944760839341,0.947541141130123,-0.0241414427971975,-0.056559520207601,0.0211128361562171,0.259156973367096,0.943816542418747,0.533489485572238
626,626,-0.155431738427391,0.219186361789742,0.947455449745548,-0.0243559697496798,-0.0502273948553,0.0237665059684389,0.0350769965076581,0.843599793496078,0.311147290345331
627,627,-0.155583246193867,0.218441811931155,0.947385431930861,-0.0219944639181501,-0.044444890608304,0.0245801646619477,-0.104115826077024,0.824207840667656,0.0564257144014702
628,628,-0.155724750989764,0.217757250301524,0.94733019464035,-0.0183454954953619,-0.0390007073213879,0.0242180993275713,-0.232437658834388,0.839247601189594,-0.201650909527108
629,629,-0.155854122414297,0.217178874039185,0.947288849852245,-0.0158360421601394,-0.0331160511874195,0.0234815399888775,-0.239118490810414,0.835025486537874,-0.240011319530576
630,630,-0.155969254152925,0.21675289265944,0.947260515590638,-0.0148730934520145,-0.026562174088441,0.0228964859088558,-0.116740535167208,0.854528731114451,-0.203088421845079
631,631,-0.156070388646641,0.216492551956002,0.947248853484196,-0.0157419574563604,-0.019513788730714,0.0227535049702918,-0.1050415469433,0.845929931113975,-0.120888228835941
632,632,-0.1561588477457,0.216367116607397,0.947254358391175,-0.0191877850982953,-0.0104195661345588,0.0226411693696432,-0.0901516391641241,0.818124833693922,0.00603099126297159
633,633,-0.156234200950619,0.216356822625009,0.94727143013963,-0.0229289948549649,-0.000247433743006158,0.0223411937815724,-0.17579727373544,0.711082512987454,0.0792276296722818
634,634,-0.156296055205912,0.216441905744444,0.947294486574706,-0.0258994963791387,0.00998457599757383,0.0215858540772514,-0.247223042581221,0.667581822242589,0.0936119842628153
635,635,-0.156344034213438,0.216602585120308,0.947317948566095,-0.0272257184186035,0.0198741634005879,0.0201206796600237,-0.276342401924153,0.627900077705071,0.0177555823190675
636,636,-0.156387650633023,0.216860117392395,0.947343019796416,-0.0265478121630666,0.028353568336784,0.0175037842678132,-0.23081674453102,0.681000917545779,-0.0563132313606945
637,637,-0.156427204221152,0.217227635268624,0.947373542714695,-0.0236158946085061,0.0363608900445323,0.0139092050526151,-0.18514224871833,0.732403607159532,-0.162696483436151
638,638,-0.156448496101209,0.217673171397688,0.947407858403273,-0.0196992784298571,0.0434883183543872,0.00995374308162487,-0.0996507173197564,0.826834238342348,-0.247082309538023
639,639,-0.156437326385668,0.218164823545832,0.947444245765028,-0.015600274968267,0.0499483839078716,0.00631514314408787,-0.015259045527606,0.793339081343701,-0.336704402928649
640,640,-0.156379500177533,0.218670776394808,0.947480908018789,-0.0126922514533074,0.0560020802025082,0.003633398881188,0.0523039164919683,0.747699718794299,-0.339063705409817
641,641,-0.156254492554704,0.219178792316845,0.947508906903895,-0.0113529416968318,0.0610594552071241,0.00199514309852749,0.014190303403484,0.668411261712072,-0.300888818292347
642,642,-0.156071806651371,0.219710107471984,0.94752946011234,-0.0101609971453235,0.0651938299940593,0.000827250110715836,-0.0475592856905727,0.593198132225029,-0.184060906153018
643,643,-0.15586230491181,0.22028320138689,0.947555948181494,-0.00873227939956966,0.0684874677159813,-3.49723112889052e-05,-0.0145288811518216,0.57549669279693,-0.0790942913120709
644,644,-0.155656859799788,0.220916578061291,0.947601752938892,-0.00708718216060737,0.072335486803267,-0.000580160993248344,-0.084840452106622,0.565748752332181,0.060258659614597
645,645,-0.155486351572534,0.221628766381084,0.947680256576935,-0.00424858297176572,0.0768723102775251,-0.000973054530627339,-0.055031343309778,0.580669384149245,0.138897487811083
646,646,-0.155362348545588,0.222414671499616,0.947813634347054,-0.000165632312638383,0.0835457297641968,-0.00103814358026411,-0.0196407957088403,0.578263538715154,0.131511935227031
647,647,-0.155264348457673,0.223262068709326,0.947992974519232,0.00492896076682504,0.0913517251400391,-0.000659954639274229,-0.00355258295961556,0.609498873852372,0.0644270359661256
648,648,-0.155175111182309,0.224178762582995,0.948185073724498,0.0101665610084954,0.0994758587675618,-5.11935950897845e-05,0.0306826603330366,0.656535232656644,-0.0299536567993587
649,649,-0.155077374322718,0.225172499598756,0.948356788353945,0.0146919856231832,0.107651420976754,0.00060933606314129,0.0090407216047665,0.666763842348727,-0.125482496990363
650,650,-0.154953852794671,0.226250958634702,0.948475040953291,0.0173723388906965,0.115688795472835,0.00110243544257259,0.021471326440031,0.665609452125449,-0.167997498494164
651,651,-0.154779716787269,0.227430940994655,0.948517029244634,0.0189936041389867,0.124180045233706,0.00129391110990223,0.0113308336294573,0.643781833674908,-0.125194813664294
652,652,-0.154566526851676,0.228707250319779,0.948505038407891,0.0205151308304684,0.133335789284415,0.00133239387707844,-0.0106685219254547,0.514660790248045,-0.101600500300146
653,653,-0.154351545197147,0.230054513291779,0.948473641320853,0.0210028671343086,0.142505765943603,0.00155877214693963,0.0717205155004179,0.549145190421326,-0.026978919562297
654,654,-0.154172003615559,0.231447379502151,0.948457355090095,0.0207987237896932,0.150111534924514,0.00215698884108407,0.0665477082355518,0.580174678345939,-0.0389025077829928
655,655,-0.154065101104479,0.232860531343984,0.948490634927051,0.0185497569331648,0.155726999226508,0.0030873263496466,0.130556844528571,0.596164922441617,0.0934548526077184
656,656,-0.154049243074449,0.234312199188078,0.948584547959564,0.0126218833660078,0.160490370731631,0.00537187504828567,-0.00666376021379935,0.498289753803144,-0.0776394011009167
657,657,-0.154099550922664,0.235819195050053,0.94871632597986,0.00668763164255251,0.164545924558697,0.00836866724337823,-0.0756871495409075,0.437968408961033,-0.266393954655422
658,658,-0.154188312359011,0.237354153900878,0.948869504790538,0.00158485033252284,0.166732468348981,0.0114912411110639,-0.0704981549404926,0.49107022715568,-0.276513915527645
659,659,-0.154287877344245,0.238889780381659,0.949027461268975,-0.00189032341165627,0.166824689464261,0.0141653934967697,0.0200877769315218,0.475701719842703,-0.15035010253646
660,660,-0.154370661858874,0.240398839532226,0.949173427562451,-0.00300221069437055,0.165146580864206,0.0160453202167655,0.0808799693610063,0.434024168700198,0.216666096740812
661,661,-0.154444049541697,0.241865021795632,0.949319016602172,-0.00445509202245537,0.164529464185508,0.0181552838912537,0.0028254047107722,0.353553524409513,0.280318528150669
662,662,-0.154526498444171,0.243306610632762,0.94947518439927,-0.0048935244826597,0.162255771244502,0.0205889560639068,-0.0735827192580306,0.244587039483588,0.252700676451648
663,663,-0.154607079766256,0.244748222846093,0.949624232219321,-0.00499871176632601,0.159620293990695,0.02218430189862,-0.0155790284132744,0.118297867615659,0.192395403336731
664,664,-0.154674859684212,0.246214397757073,0.94974866113435,-0.00444391213027906,0.157879339567985,0.0224228881610004,-0.061547925906371,0.147661838585258,-0.00635262568828025
665,665,-0.154718901149722,0.247729573514594,0.949831212615959,-0.00423239782758428,0.158254759885281,0.0205486332688195,-0.163068585835626,0.126989761145099,-0.207418685645143
666,666,-0.154726323900123,0.249320545952308,0.949870127521632,-0.00419150173904046,0.160850079897946,0.0158806634728128,-0.192552123747691,0.132146769679817,-0.41182473194025
667,667,-0.154704464467736,0.25097081701915,0.949877446593399,-0.00451715437847194,0.164537937506254,0.00898837334305553,-0.161541097531049,0.156652895856967,-0.543493757345019
668,668,-0.154672747121178,0.252639725179279,0.949856896921732,-0.00438750666485899,0.166808930840227,0.000953061917379191,-0.128855906141998,0.126010990341068,-0.623298093709425
669,669,-0.154650650397927,0.25428653336989,0.949812320262749,-0.00398085002492497,0.167544904881184,-0.00725018345514744,-0.0603243435249185,0.120062347311789,-0.639085848034153
670,670,-0.154657730551577,0.255870399051809,0.949747724887488,-0.00313058385144349,0.163876579897249,-0.0146054891700892,-0.140274246447399,0.0275832519917793,-0.641615005086643
671,671,-0.154676907992232,0.257423771584872,0.949648581040908,-0.00232152504973158,0.155532540182778,-0.0222000437516559,-0.200429880334058,-0.109374468221002,-0.694727077417071
672,672,-0.15469554421758,0.258972950037797,0.949514006866046,-0.00158303084618205,0.143088349638794,-0.0307502624798163,-0.202533451673175,-0.217603338951208,-0.716621303640595
673,673,-0.154739872543705,0.260468076009324,0.949368125029114,-0.00118710700145152,0.128483138591767,-0.0387012670600233,-0.188819485729408,-0.269368746101159,-0.674868366701118
674,674,-0.154835993907676,0.261859794762231,0.949234203307685,-0.00192479326578162,0.114815308176233,-0.0445056185842873,-0.0450901839760854,-0.267499427397569,-0.537365982175576
675,675,-0.155009831565423,0.263099305565883,0.949134550677725,-0.00343094357420082,0.103861075708662,-0.046703365138515,0.0691756294480884,-0.322878574238201,-0.278556522503553
676,676,-0.15532091672943,0.264127358017609,0.949072092156814,-0.00711445139807178,0.0954669835698136,-0.0444059895652966,0.100825256747797,-0.315838941600484,0.171657154237763
