,Frame,CoM pos x,CoM pos y,CoM pos z,CoM vel x,CoM vel y,CoM vel z,CoM acc x,CoM acc y,CoM acc z
0,0,0.0785100214951042,-0.209741552139651,0.951965891387496,-0.0082049680535221,-0.0157439865349761,-0.00224578991709722,0.0392663117501136,-0.122361966842246,-0.0286903026425956
1,1,0.0784271420947303,-0.209890678502551,0.951952696458308,-0.00691436648125632,-0.0163770076587935,-0.00203485218583016,0.0766698684387859,-0.0503204414968954,0.0135750543070699
2,2,0.0783559411020967,-0.210051101929145,0.951946341517652,-0.00520028005566595,-0.0169724987358393,-0.0016074474211468,0.151445566303407,-0.0772333259191849,0.0618083171298918
3,3,0.0782985112164323,-0.210225892939246,0.951951280697853,-0.00255396424239515,-0.017464341624555,-0.000838371138514226,0.224789045421866,-0.0686451624695089,0.122525289204886
4,4,0.0782328418792876,-0.210418671636329,0.95197406229304,0.00108578890206692,-0.0182004262196286,0.000697237871005385,0.210466957081094,-0.0750315181199397,0.14074176827747
5,5,0.0781575353875946,-0.210627386274923,0.952011719470704,0.00600632148875951,-0.0190105873702436,0.00295092259902716,0.163911571720558,-0.0557008246349476,0.178492515447414
6,6,0.0781056071004728,-0.210846601465063,0.952054439394987,0.0110781480895745,-0.0198917435951742,0.00533941224019168,0.112344759104186,-0.0921147914966284,0.157826956876585
7,7,0.0781100770118408,-0.211070891790463,0.952092407925413,0.0158643792034729,-0.0208209373983737,0.00718053096576094,0.179843213096159,-0.139990590634037,0.18168960879517
8,8,0.0782039702885506,-0.211294840605741,0.952115818624943,0.0203444700764814,-0.022143976886192,0.00779590975941414,0.242639426664639,-0.0919642070258215,0.178098604968512
9,9,0.0784074677830599,-0.21151301212794,0.952126855038907,0.0241546912174776,-0.0234948919960769,0.00689286404520434,0.225448138985782,-0.0736087884854409,0.0925659929417657
10,10,0.0786985659630006,-0.211729017286515,0.952132123534364,0.0270609118578451,-0.0252471292955459,0.00486556268339852,0.257579274651267,-0.136844517494564,0.00100172670278404
11,11,0.0790470091846602,-0.211951003002531,0.952128440135037,0.0296171756871907,-0.0270492182851746,0.00228613904788322,0.213827209028841,-0.133172838976826,-0.174705966357851
12,12,0.0794225308718654,-0.212187106500088,0.952112559528606,0.0312636016541042,-0.0286921280758549,-0.000333698561451285,0.198242072305316,-0.155694136026818,-0.328793425058885
13,13,0.0797948528801739,-0.212445461835117,0.952081171863859,0.0320949696585034,-0.0292854765727743,-0.00254711263938527,0.247686661935663,-0.162723908998356,-0.361199067284511
14,14,0.0801709781306657,-0.212735456484995,0.952027697852216,0.0323868795092255,-0.0290250756903746,-0.00456806167704583,0.255126816792563,-0.178010026142275,-0.346400456971084
15,15,0.0805710678644424,-0.213051638010158,0.951954325752164,0.0322801408241725,-0.028864415939879,-0.00672423251663558,0.282881943193681,-0.119377006213858,-0.268012508183157
16,16,0.0809845831871335,-0.213379911252632,0.951870852239353,0.0314548796932843,-0.0289386123456565,-0.00867282062945066,0.279057394195834,-0.0759118279832327,-0.198011860033123
17,17,0.0814010022473396,-0.213706209132674,0.951787057078093,0.031576565932147,-0.0287626264537588,-0.0100134186891426,0.240245406517441,-0.0653226601287909,-0.0391291425826066
18,18,0.0818098187681617,-0.214016484728013,0.951712702129461,0.0329263391555484,-0.0289064571784473,-0.0103442585465608,0.287213974404729,-0.0306333858596952,0.0726231732187159
19,19,0.0821877833920098,-0.2143037730089,0.951647240591559,0.0353429708110003,-0.0294273418747876,-0.00918902382851879,0.2520800243201,-0.0528474079490345,0.193110516219852
20,20,0.0825419065711687,-0.214577486766128,0.951584137376039,0.0389336196016224,-0.0307922487484773,-0.00677734573631898,0.154329749990282,-0.0138975712089066,0.235673667283493
21,21,0.0829070796150688,-0.214848133484194,0.951524173777636,0.0432578947293865,-0.0315841611129367,-0.0038800757832334,0.0603590728786894,-0.0537027692295944,0.252807070980541
22,22,0.0833181999101628,-0.21512619956545,0.951468139467178,0.0482743643447069,-0.0323932796022132,-0.00121221968575739,0.0190941010083543,-0.026931412295588,0.195897841877307
23,23,0.0838101719321021,-0.215422154043145,0.951416824690549,0.0526390814349813,-0.0329272941958289,0.000495357811927061,0.00811180839587976,-0.0602707297483321,0.132798277739438
24,24,0.0844195412807524,-0.215740921561959,0.95136923689604,0.0562435048688329,-0.0334424844941803,0.000955154582795828,0.0233023928296773,-0.065725564698672,0.0583092342933637
25,25,0.0851230482798534,-0.216075482192407,0.951324844026444,0.0594284561064368,-0.0342195352192305,0.000622526642453294,0.0729300776114457,-0.0180364522000121,0.0425739575539834
26,26,0.0858658877736308,-0.216418393528839,0.951285119166916,0.0623393902490737,-0.0345633646377938,-2.31139191096278e-05,0.0239970889879348,-0.0104645843511861,-0.0585198405862429
27,27,0.0865932514913238,-0.21676224458733,0.951251535736476,0.0642544235076214,-0.0349066539548553,-0.000714262768602739,0.0281564960580499,-0.0212215488427941,-0.00962676503237176
28,28,0.0872503285249018,-0.217099653127663,0.951225572540416,0.0654036303614742,-0.0347759441487701,-0.000967245368652326,-0.0617608548143951,-0.0391050646828392,-0.0154425843278482
29,29,0.087798658610461,-0.217421643708315,0.951207108398069,0.0651162822982565,-0.0346006713052084,-0.000620031217056386,-0.0899671385977112,-0.0482912470188837,0.00800279902100035
30,30,0.0882747777224619,-0.217733160491878,0.951195154038106,0.0644363360993447,-0.034679157203656,4.72012947820417e-05,-0.0940738369521577,-0.0132360147491796,0.034805411705596
31,31,0.0887363699067497,-0.21804770764947,0.951189884614314,0.0637011839555644,-0.0347390924818135,0.000795414813482818,-0.0267356493996068,-0.035195255439712,0.0760333149860968
32,32,0.08924112189575,-0.218378782017577,0.95119146331832,0.0637283348416653,-0.0347399033286778,0.00143775357780143,-0.0446687955329766,-0.0259590051481171,0.106094305361283
33,33,0.0898467234950812,-0.218739873914255,0.951200033301629,0.064571752371834,-0.0353972259083802,0.00175059254043911,0.0112496786465396,-0.0419546790991707,0.163328892959598
34,34,0.090570335628507,-0.219137552170274,0.951218119807923,0.0679886439983433,-0.0362105266287556,0.00166441387921947,-0.045141937184091,-0.0133671640419118,0.115951398575772
35,35,0.0913734997138393,-0.219562795529184,0.951245560536738,0.073151761112782,-0.037124068629372,0.00134152923652441,-0.13717090938334,-0.0750636373068663,0.0761853296439715
36,36,0.0922304843286945,-0.220005716892757,0.951278453322001,0.0792219579786795,-0.0386348892633259,0.000848154524630613,-0.214028258911247,-0.0818167666796136,0.0449411673750963
37,37,0.0931155676864889,-0.220456454291999,0.951312913578255,0.0854110618727111,-0.0410267067054696,0.000231191582080391,-0.224972704232141,-0.170861619532875,-0.0264648590151848
38,38,0.0940030366402257,-0.220905167662379,0.951345081437486,0.0906715731334659,-0.0441325475617582,-0.000595579904055809,-0.0642278707279742,-0.305658227015252,-0.0914145182325202
39,39,0.0948884853464387,-0.221329310259311,0.951378793058879,0.094696989041341,-0.0469996778236232,-0.00179655386090244,0.0806055080250329,-0.331697085235848,-0.122196309444976
40,40,0.0957890880381986,-0.221735427978276,0.95141657032058,0.0968698646004816,-0.0501881738604783,-0.00339583960652198,0.144262514710602,-0.283564616869993,-0.129842318408576
41,41,0.0967114820889913,-0.222157343743877,0.951452627831274,0.0976601218533474,-0.0540003354815119,-0.00500350633852648,0.140693856125272,-0.261979651239364,-0.0599107357425379
42,42,0.0976622739189401,-0.222628914716071,0.951481209770158,0.0978609978385513,-0.0584521299939172,-0.00616918113415022,0.0685110664430859,-0.282855128558594,-0.0280471225819405
43,43,0.0986480392076457,-0.223184038491343,0.951496590517807,0.0983792133530604,-0.0636412195810604,-0.00651789084335339,0.139095913650094,-0.281837848321359,0.0355925989057689
44,44,0.0996546948870509,-0.223848191752182,0.951501302984232,0.0990256374056563,-0.0692436620744843,-0.00561074759838972,0.157421448173843,-0.305873007736105,0.03660981709878
45,45,0.100677783772007,-0.224598841429345,0.951499200017402,0.0992531344331878,-0.075679351982797,-0.00374566219467544,0.224775981724676,-0.319333347539659,0.0622213638818851
46,46,0.101738327260885,-0.225397888511147,0.951486554709607,0.098810130653016,-0.0824099182477072,-0.00153652694601881,0.437115946082339,-0.348724796492402,0.132116978617351
47,47,0.102857389911928,-0.226207210746025,0.95145963797735,0.0983592630318435,-0.088600427342016,0.000383030835994566,0.569736785209262,-0.382700582071509,0.253286748668851
48,48,0.104056081192967,-0.226988654734316,0.95141472662927,0.09930046916414,-0.0932892607991673,0.00135046575167718,0.578539508265431,-0.348347786612582,0.27529958705674
49,49,0.105363785177639,-0.227737243179942,0.951355205288788,0.102933614753299,-0.0952354280856025,0.00133217937134833,0.511271525080732,-0.404205308059648,0.233170694337315
50,50,0.10676645518227,-0.228478411909226,0.951283625417246,0.109050330418349,-0.0959809701905866,0.000556247128940139,0.405161330166047,-0.391538955467201,0.155116819457358
51,51,0.108220101702586,-0.229219584840266,0.95119503265345,0.114808019565572,-0.095453589903317,-0.000493032088855985,0.379382097948008,-0.392340734245803,-0.0438286314196923
52,52,0.109680749919512,-0.229968156731067,0.951084465764529,0.119729337623808,-0.0946093835112729,-0.0017751375758822,0.336722444898898,-0.375210928390129,-0.257148349649322
53,53,0.111104434877659,-0.230731493372989,0.950946943505053,0.122743434172923,-0.0941352460248657,-0.00350270059475768,0.365182358195561,-0.289814332189285,-0.337844808657682
54,54,0.112518821906977,-0.231510807808514,0.950767552576953,0.124660209053102,-0.093228373562721,-0.00631936228620172,0.392338804179888,-0.263686087684242,-0.390704411509197
55,55,0.113953275260194,-0.232301062185918,0.95054971746747,0.126018313842562,-0.0918378822443903,-0.0100636322844713,0.439513280099784,-0.174472963919703,-0.483139285764684
56,56,0.115366390549718,-0.233100267801021,0.950315892267232,0.127221690126665,-0.091172844357613,-0.0140784221406949,0.41901523288582,-0.0831907976722722,-0.428410303183324
57,57,0.116716780547662,-0.233906498642741,0.950088458180908,0.128045166127722,-0.0914441674738618,-0.0172263128288858,0.458229093772045,0.0882295328266903,-0.270821981438235
58,58,0.117963075447999,-0.234717899445618,0.949889742823719,0.128402354701676,-0.0935401840393139,-0.0186372235398492,0.363428584062873,0.12392354414263,-0.154042590143438
59,59,0.119023710417024,-0.235508664486886,0.949725629423288,0.128299297481678,-0.0962475986931966,-0.0180972909867245,0.258103641749316,0.141863275296101,0.0208301121104563
60,60,0.119926371701742,-0.236280064609581,0.949581215868959,0.12864605894748,-0.0975192804862594,-0.016136556823186,0.222228835527062,0.0728985231892709,0.100817511004835
61,61,0.120793527450091,-0.237070907891636,0.949447644506358,0.130757123555631,-0.0986961405706817,-0.0135737500579465,0.101671104521238,0.0855282460156678,0.124608218667937
62,62,0.121747586787538,-0.237919988881228,0.949316042755673,0.132789224273588,-0.100433856021225,-0.0111808429976708,0.162486089226973,0.0892985547781773,0.23928686759527
63,63,0.122910898252075,-0.238866090859767,0.949177505411973,0.135293802595592,-0.103545510313152,-0.00972535251976905,0.143407623165635,0.102918884017415,0.387547242555745
64,64,0.12430484047231,-0.239972859282993,0.949040094164713,0.139894526708774,-0.109619413757799,-0.00931679204074936,0.154859011778224,0.120041121869253,0.40657109996151
65,65,0.125847794042152,-0.241214482473924,0.948909741516309,0.147843170302185,-0.118129970457909,-0.00945803651248946,0.0820074074523403,0.00879925523075703,0.319701790433717
66,66,0.127507539144266,-0.242495558702042,0.948774304628041,0.157552140832794,-0.12562548340364,-0.010037614096194,0.0114796163977477,-0.0649654306679851,0.0753299053568563
67,67,0.129251840231778,-0.24372067930004,0.948621653421195,0.166930913575081,-0.130785839911847,-0.0110080415801629,0.0493654089957051,-0.064671562439136,-0.14920620423951
68,68,0.131048466173642,-0.244794405859229,0.948439806978731,0.173778596662087,-0.131363601873857,-0.0122988767961574,0.0638462696130641,0.00907672555144142,-0.18670266105518
69,69,0.132915875070499,-0.245750851047518,0.94823319284518,0.177307491390019,-0.125775939556849,-0.0131610956749532,0.206500273907772,0.181935409878932,-0.0681275311773132
70,70,0.134875523640387,-0.246653539598573,0.948010300038498,0.178386185964589,-0.115557371639971,-0.0135842731366954,0.309470249688761,0.311815887524256,-0.000295440283219613
71,71,0.136899704186138,-0.247451211754737,0.947765628972806,0.178009790540136,-0.101713218030868,-0.0145231725770993,0.237150285650828,0.400786635362518,0.0111480341084463
72,72,0.138960699447256,-0.248092765966811,0.947493919676247,0.178516274552402,-0.085901406472168,-0.0170343262488613,0.095462714195987,0.382794282112009,-0.154790439184861
73,73,0.141030759222885,-0.248527321813737,0.94719027261341,0.181740803986923,-0.0701451364528561,-0.0221994923057611,-0.0908229204812041,0.410699798525347,-0.427809963362002
74,74,0.143130421868283,-0.248753556394233,0.946840539193496,0.189710319848759,-0.0537886712338051,-0.0322848410233253,-0.11298345099879,0.436255945566386,-0.563077737595818
75,75,0.145278078920256,-0.248806240545142,0.946450754658452,0.201728761635783,-0.0353837229973289,-0.046531446223121,-0.336885690925514,0.542569116900346,-0.876806053393711
76,76,0.147442816367315,-0.248688384072691,0.946046337522012,0.213731054648083,-0.0157481774437754,-0.0615603752224504,-0.313226869143786,0.538305049399569,-1.01286708278192
77,77,0.149593887372048,-0.248402120601292,0.945652068576819,0.223703782834922,0.00310955238230031,-0.0743555771140179,-0.344681917108677,0.807249640572084,-1.05471204444154
78,78,0.151700759396237,-0.247948538880729,0.945291924097131,0.230435502568925,0.0220319594882854,-0.0817417879300829,-0.12017405083562,0.695221612133835,-1.05710660947985
79,79,0.153733850779819,-0.247212088244281,0.944954641899971,0.22974741698491,0.0407273818420753,-0.0836484154694498,0.352487126830962,0.662930865011975,-0.788458097709406
80,80,0.155714145928476,-0.246189819801303,0.944627582393884,0.222205920291346,0.0626632732580037,-0.0820702317652302,0.93265872313382,0.54926708106218,-0.48108695680474
81,81,0.15768673711124,-0.245051696501916,0.944330245448341,0.211374058185326,0.0825096225295291,-0.0773873215212155,1.33165209576328,0.332480078162429,-0.0313439152720499
82,82,0.159696059965903,-0.243969070937812,0.944079609968014,0.200712977271909,0.0976096088360391,-0.0696511982138724,1.78639333503964,0.1734859065181,0.659810611276286
83,83,0.161785976637454,-0.24311481391557,0.94389024870396,0.199210818865522,0.103167678085181,-0.0592894565833916,1.75915168838622,-0.00656656001535176,1.27607732682015
84,84,0.163881020637384,-0.242438077794826,0.943768155694612,0.209178405643661,0.095733637382153,-0.0439160354190647,1.57504574848693,-0.170587624062108,1.49548508311108
85,85,0.165951365875922,-0.241823974447885,0.943702034634423,0.227020641583006,0.0786069680489596,-0.0231010502541888,1.61964640318067,-0.375985952364672,1.55942611418318
86,86,0.168108978945564,-0.241350928256667,0.943678314731254,0.249706114660837,0.0561904117702965,-0.000827221671462676,1.81083876840441,-0.341451225037313,1.63338425336159
87,87,0.17046580855719,-0.241098073124688,0.94368266788138,0.273766900438281,0.0339187692889213,0.0186461713839389,1.83628515690232,-0.278152792367451,1.47959163556512
88,88,0.173133909154658,-0.241145072548771,0.94370027595529,0.294429377210947,0.0160038630537375,0.0307343783250886,2.2352053675434,-0.211775476291406,1.22861604256575
89,89,0.176217803728075,-0.24160021101166,0.943756537704819,0.314457566137565,0.00366732866588597,0.033781653285158,2.18310431810603,-0.259538497759212,0.673875016251242
90,90,0.179643109682378,-0.242412051969152,0.943859652627889,0.335067553385678,-0.00604425078210984,0.0307452201177197,1.93933111454059,-0.172529807091013,-0.013998450098685
91,91,0.183253652041368,-0.24342031212859,0.943969569458377,0.35449660199011,-0.0153161061461898,0.0245155194574388,1.59164354988547,0.0518904274622072,-0.582063575892124
92,92,0.186893057798628,-0.24446433890592,0.944046918758815,0.369252844179873,-0.0235663902329423,0.0166480040206887,1.48037176310851,0.251883343411825,-0.942450913851858
93,93,0.19040466405964,-0.245383464066304,0.944052678655233,0.378776959322686,-0.031631619802537,0.00906332963634027,1.27490789133348,0.440455552496505,-1.29482036663872
94,94,0.193727058795033,-0.246211418553383,0.944007917869286,0.379275839679374,-0.0386670934459649,0.00164321854280409,1.39854403960773,0.52641395847003,-1.36501241351171
95,95,0.1969650030547,-0.247056123790554,0.943940598873342,0.372484157932424,-0.0434745465792967,-0.00691697546530248,1.56810038281749,0.374864717553922,-1.39396904755169
96,96,0.200210814597675,-0.247867863482985,0.94382176172469,0.363196581817394,-0.0464885021066526,-0.01634783271777,1.80886352959981,0.221737483935448,-1.29992280680138
97,97,0.203556736848062,-0.248596212910148,0.943621821295007,0.356806197421739,-0.0483856607847397,-0.0264891405319154,2.0516369633514,0.0732726087565835,-1.12658067317694
98,98,0.207094979481262,-0.249189905664583,0.943310477807097,0.358710822475876,-0.0487169430364808,-0.0370142343762187,2.0416390768519,-0.0651586065950873,-1.04909763354161
99,99,0.210800323908649,-0.249611711431798,0.942887966758166,0.372871828515403,-0.045558861465872,-0.0484333936330229,1.87221698426457,-0.22552513367754,-1.06366181226596
100,100,0.214611271736555,-0.249895283302899,0.9423756023071,0.395638991292232,-0.0396297109592944,-0.0608881118727397,1.74088877424208,-0.2905554299005,-1.15767333319979
101,101,0.218565587280981,-0.250094834070937,0.941773657348155,0.422377772693039,-0.0329778635130333,-0.0735987004121533,1.70872445317136,-0.276081414712068,-1.26124249152041
102,102,0.222701033108868,-0.250264341167082,0.941081679314643,0.448297400675591,-0.0275561494173346,-0.0858491243812677,1.77069242791342,-0.201072283653984,-1.14258607234602
103,103,0.227055424048543,-0.250457555661884,0.940298503182219,0.468843262334938,-0.0241074330721661,-0.0966802573948003,1.83247237825921,-0.120878101872723,-1.05380507110751
104,104,0.231650074576171,-0.250679568508141,0.939409087746456,0.481954742587007,-0.0239359548427212,-0.105992215582433,1.93438975963752,-0.0729481536511472,-0.987804872251892
105,105,0.236459765785993,-0.250893138887108,0.938413932694437,0.490718123209782,-0.0253652910105402,-0.114031092850269,2.09165889745775,-0.0236388768821184,-0.826910834966536
106,106,0.241452548811348,-0.251088723645151,0.937334334173853,0.498742682882525,-0.0281136969344814,-0.121188215226878,1.99993000340322,0.124258606560736,-0.848027862822214
107,107,0.246596454005616,-0.251257291043735,0.936191093869741,0.507871184374648,-0.0298566970625554,-0.127723526126986,1.88796433667354,0.186981060633394,-0.939382492236416
108,108,0.251859524911705,-0.251390335746264,0.935004531942757,0.522878154970027,-0.0293636613351844,-0.134127332548217,1.77151028027329,0.124635044749175,-1.22010146540526
109,109,0.257158406116518,-0.251430055785543,0.933760859932416,0.542551585096052,-0.0291249148901686,-0.142090480126715,1.89637039005413,0.164126859416496,-1.44147256062215
110,110,0.262514439253709,-0.251381851028163,0.932445596176407,0.563149989718927,-0.0303902381174885,-0.151597133885093,2.03818549082799,0.316281820090383,-1.27231646284523
111,111,0.268052859967106,-0.251332709144885,0.931077238866207,0.585293762261714,-0.0310811922776664,-0.160463993054798,2.31966339444505,0.29218432777221,-0.752211502742799
112,112,0.273899079856132,-0.251369984046112,0.929673775292839,0.610555786077392,-0.0309858055065188,-0.166514346078842,2.51282098657176,0.286392486530898,-0.318253903123196
113,113,0.28017868939138,-0.251581288379658,0.928252863119044,0.638391884613902,-0.0324882859387956,-0.167828616423753,2.66527182519388,0.245729951875581,-0.0567718736095227
114,114,0.286871510070421,-0.252025928885588,0.926747463943649,0.66642278328357,-0.0367736828120271,-0.163459808346176,2.91447684307578,0.393380159560539,0.374262049355005
115,115,0.29389444428303,-0.252646006733328,0.925144852621042,0.697831706239105,-0.0417150555012947,-0.154701989415666,2.88502957094808,0.387061535337599,0.833816950508933
116,116,0.301278817750047,-0.253353002932555,0.923543672475145,0.732958478427289,-0.0499606430196507,-0.143059637681893,2.74912056038578,0.534826308726277,1.09948368151574
117,117,0.309055869958036,-0.254057902235698,0.922042055704046,0.771478940382436,-0.0616014504467134,-0.130009025486638,2.53488669971669,0.847317082347102,1.30929394218646
118,118,0.317256641944006,-0.254671412430551,0.9207378248843,0.811022125726627,-0.0724402409017832,-0.115822865070474,2.70610885799927,0.986319071563965,1.80903036554567
119,119,0.325953607496384,-0.255162728450178,0.919513514876684,0.849389545078023,-0.0803064237901335,-0.0997140029647022,2.7978883956656,0.88519672152953,2.20487487566654
120,120,0.335125983446467,-0.255590978772404,0.918304124786697,0.884507344055324,-0.0846081981714804,-0.0809168110181169,3.20907481112381,0.816202296503159,2.34213427028367
121,121,0.344664605042807,-0.256001659179089,0.91728600367182,0.917276638279205,-0.0859633253487926,-0.060832889033623,3.48653117743073,0.825648081983954,2.36363754502759
122,122,0.354460286414972,-0.256439917350934,0.916635158125693,0.947402932991401,-0.0870373246676481,-0.0390114575476372,3.42242646476904,0.67325833816194,1.93170477139462
123,123,0.364403809754762,-0.256950618793443,0.916527382565103,0.975512904842022,-0.0904935433292303,-0.0165212964299857,3.59330486129604,0.39105581279647,1.93269471078154
124,124,0.374534733442388,-0.257598648388439,0.917130073012444,1.00463782257992,-0.0975085967475975,0.00879766900856453,3.30121051082105,0.239673047970399,2.44213274868136
125,125,0.384924349884147,-0.258353800868167,0.918328822814948,1.03668613029685,-0.106942529451521,0.0376770303154248,3.34518257518693,0.178875963716242,2.6453742150111
126,126,0.395511527805193,-0.259118818001499,0.919876774217778,1.06670787364727,-0.117490688803045,0.0660587590981671,3.32877420150119,0.0992005797844294,2.76848781906056
127,127,0.406236259704948,-0.259797003383128,0.921526785409806,1.09332775925264,-0.12355042648059,0.0926096811146867,2.66820315908116,-0.00534668085523422,2.85525867182063
128,128,0.417039904359971,-0.260292015985753,0.923031423293834,1.12100187639191,-0.11959346358774,0.116566424863913,1.92219947139524,-0.165989031875716,2.61076984113186
129,129,0.427923391652674,-0.260613845262884,0.924380850419561,1.1497796466632,-0.107270225582019,0.135619619191037,1.20866729295393,-0.0414569791306554,2.28878467181576
130,130,0.438927787099012,-0.260827938285265,0.925746586923268,1.17520179371481,-0.0900612390959671,0.150012765606263,0.841746406713248,-0.0451871617404882,2.03271544088977
131,131,0.450055272488844,-0.260921618849767,0.927152439288277,1.19552002429358,-0.0704665059680219,0.161026229950454,0.031984713827312,0.145540201769138,1.50454763220082
132,132,0.461307157396086,-0.260882834237248,0.928620943403094,1.2080357034362,-0.0523144723121826,0.169258588494479,-0.55359119468674,0.152938313032752,1.01777225130194
133,133,0.472683594548388,-0.260700237580004,0.930173323309192,1.20929662206362,-0.0414542343874642,0.174525403472605,-0.781433895626728,0.2787932534755,0.601273887883479
134,134,0.4843446132952,-0.260291171596913,0.93187045881521,1.19496772959407,-0.0370917274020951,0.175242475791789,-0.892244496160206,0.162529979984042,-0.143642164831911
135,135,0.496290027747369,-0.259667299159162,0.933709566074623,1.16650208312054,-0.0370044702736127,0.170977887406855,-0.943077440888013,-0.159592613553706,-0.709948172718292
136,136,0.508278432765968,-0.258957167480941,0.935609593810385,1.12993938842085,-0.0362633912600234,0.16468055210754,-1.31644184274027,-0.390566055743734,-0.910415596267658
137,137,0.520067918680718,-0.258286147454384,0.93748054471389,1.09285710438404,-0.0340831433966492,0.158078003654894,-1.36123763385687,-0.308595849436838,-0.694625550448871
138,138,0.531415898278752,-0.257776646256383,0.939223744335183,1.06577561083563,-0.0335853647577029,0.153944238675118,-1.44026111251726,-0.139941068921454,-0.673490388144657
139,139,0.542163399232918,-0.257487390658164,0.940827085253347,1.04163600933228,-0.0323775066270694,0.157524955645649,-1.17716991980754,-0.314662813203462,-0.607986651715794
140,140,0.552470274471781,-0.257333104922873,0.942350668459374,1.01411250331285,-0.0322997708511442,0.167123036576089,-0.226208314624342,-0.503305763829605,0.460012312536043
141,141,0.562571923605646,-0.25721950096843,0.943799119240042,0.989332684606397,-0.0313772220154946,0.179207167624222,-0.44803380279799,-0.498559510507389,0.83877689385406
142,142,0.572704078850336,-0.257053546890473,0.945177471681409,0.972562609420378,-0.0279179294785063,0.186675995544428,-0.611128619197559,-0.834325900766939,0.622870695251862
143,143,0.583102973792685,-0.256743342875405,0.94649105964411,0.968072743746363,-0.0250209778782215,0.187350040399964,-0.772511074377771,-0.675858300389066,0.275905351427303
144,144,0.593852262757979,-0.256282548797033,0.947773350499362,0.978803566959288,-0.0182072853965952,0.18288151421133,-0.961519912976151,-0.696170470417128,-0.201405342501786
145,145,0.604795294911644,-0.255733605317079,0.949022490925409,0.998151916379332,-0.00909556460072023,0.176031132007689,-0.769977860750788,-0.68259393203598,-0.361863688139372
146,146,0.615808649003603,-0.255107068517074,0.950190257409147,1.01831731243869,0.000599300941209655,0.166302422934095,-0.4532957460776,-0.464518532361514,-0.699879572752592
147,147,0.626769247199075,-0.254411345837551,0.951226801865699,1.03224975964852,0.010260764905379,0.153102331299168,-0.240894806835727,-0.202820044161198,-1.28973750080663
148,148,0.637554404704435,-0.253652635364497,0.952080203114986,1.03601538323039,0.0206545802383905,0.136196862030959,-0.537237284850282,0.0544337358342435,-1.96850094561576
149,149,0.648229583151496,-0.252758105399055,0.952769036609286,1.02659481904548,0.0262011057476708,0.114245977273469,-0.613265514164733,0.108652527933369,-2.36702582891182
150,150,0.658880222391055,-0.251717560893009,0.953330081041016,1.01112061767066,0.0294023443414584,0.0864046193610436,-0.585943698188391,-0.0183186289793963,-2.70625046044764
151,151,0.669413561431891,-0.250631381575594,0.95373662829086,0.99315564856859,0.0280682993530197,0.0563635660424278,-0.474672649519265,0.0323738345817224,-3.08209959418667
152,152,0.679736211347812,-0.249602526176061,0.953961081964136,0.977220160355327,0.0278750962098137,0.0273260038669988,-0.289555967122841,-0.105237910615553,-2.96257561991054
153,153,0.689754209726896,-0.248736631387562,0.953974711860621,0.967492987668249,0.0273928855470156,0.00165263927947253,-0.0501592760649507,-0.165018544442465,-2.70517756202717
154,154,0.699266139799696,-0.248057382929796,0.953773423069997,0.961467256084149,0.024236879849959,-0.0212695702234567,0.411520125554362,-0.0688523764523618,-2.4225491926643
155,155,0.708336541563603,-0.247493811295791,0.953380079211708,0.955403718892544,0.0193651131853537,-0.0434974907548734,0.763431390585994,-0.0629683969707985,-2.26114499073274
156,156,0.717269441784575,-0.247012775226093,0.952803782099953,0.950864427850791,0.01515863695721,-0.065877060768648,0.773496967388229,-0.303032695540266,-2.29756493929294
157,157,0.726368240067583,-0.246582383193818,0.95205124362475,0.948819606469477,0.011528955106725,-0.088129352026845,0.614156446546982,-0.219084733642859,-2.4024381795407
158,158,0.735935875987407,-0.246171745906155,0.951126766205954,0.950729543056712,0.00968202447407997,-0.110245531208636,0.470367815615339,-0.192512157764697,-2.33998934830259
159,159,0.746032558615424,-0.245775023454468,0.950022851204954,0.958108490132659,0.0115920053170224,-0.133089258833304,0.338895295901196,-0.193262418050057,-2.28283115763338
160,160,0.756455832939234,-0.245413956852315,0.948738033657383,0.970189719794346,0.0165503244853221,-0.156386931978587,0.238092220773311,-0.230445394366643,-2.25948484888928
161,161,0.767113262723215,-0.245100100688784,0.947281367610789,0.984022616519376,0.0197327359066432,-0.178206827837066,0.319110147522094,-0.0908777769978376,-2.26329292020539
162,162,0.777911539697177,-0.244846047490643,0.945658022050084,0.999472637819662,0.0202377332399927,-0.19729934422548,0.61445967108124,0.0552697472824821,-2.17264357106682
163,163,0.788757256821002,-0.244665717432964,0.943869300800522,1.01575250358007,0.0184338362149531,-0.212682422939846,0.990484135490295,0.0169303718284507,-2.14952953429864
164,164,0.799640830759064,-0.244597418698327,0.941841694120489,1.03142489390316,0.0155256209630542,-0.225585332302364,1.6075208515144,-0.110668128425087,-1.86861128033926
165,165,0.810622305457056,-0.244634589702875,0.939569296583261,1.04697146001336,0.0151217866946364,-0.237230970906743,1.94351321488139,-0.314114301414128,-1.51499135671327
166,166,0.82171390073313,-0.244724902704098,0.93714995282947,1.0659769628603,0.0150455746243935,-0.245677009777772,2.00809615591305,-0.460268906544284,-1.06310859833391
167,167,0.832929186487131,-0.244816016601973,0.934678625794048,1.08495632241976,0.0175684334530937,-0.250680502742155,1.717541700974,-0.62002672858559,-0.532991550242916
168,168,0.844283074899444,-0.244855477006029,0.932247990631801,1.09962469588421,0.0257648284728267,-0.251763163506019,1.67614716999314,-0.853223417327161,0.0780156480426366
169,169,0.85564573647145,-0.244841249903689,0.929769499948328,1.10651437874646,0.0376154604145904,-0.246921916034459,1.75250323580713,-0.758798294419318,0.683985890013427
170,170,0.8670096081852,-0.244811287780937,0.927173622334262,1.11050772250987,0.0501170797557601,-0.236116811417811,1.66884584100957,-0.571738732672783,0.838050312052341
171,171,0.878574128482419,-0.244771837511079,0.924580090233416,1.11565454763221,0.0604472996396971,-0.221069948841686,1.87543820589055,-0.40373408360818,0.97009616494789
172,172,0.890538960312061,-0.244727606909407,0.922108689376658,1.12808645574719,0.0674468336785185,-0.203040245730567,2.0324579091291,-0.249884781130219,1.24332977911005
173,173,0.903103605426259,-0.244681944801726,0.919879954007735,1.15402724211202,0.0700474529409502,-0.183552574494965,2.11246343637905,-0.133484988389915,1.67228601498828
174,174,0.916514452663602,-0.244642014957988,0.917692662035248,1.19941463887731,0.068224301732376,-0.162044781300373,2.23627199116528,-0.213739908694813,2.16183975571771
175,175,0.930639070899136,-0.244604896726309,0.915467349214468,1.25809319460844,0.0605353170140163,-0.137005264046963,2.23616267088413,-0.213005961376191,2.4918720944986
176,176,0.945107672764689,-0.244557854646151,0.913507792318516,1.32143196498711,0.0465760582755469,-0.110714736083273,2.00576130979468,-0.220161747818466,2.46815577260172
177,177,0.959550497821523,-0.244487695161758,0.912115797509848,1.37596192966217,0.031369485133633,-0.0823183522202476,2.26712399009892,-0.0227935366212719,2.58465702191402
178,178,0.973598421207665,-0.244380664971463,0.911590434406088,1.40642183021031,0.023671176332182,-0.0515267690802289,1.9011972129607,-0.000879035479045796,3.60376497003385
179,179,0.987181495274959,-0.24420819488318,0.912262627811922,1.41774431461339,0.0232220837298626,-0.0119456055650527,2.51053071501067,0.0462894079162783,3.76662158503065
180,180,1.00054429253403,-0.243976892348943,0.913936565671314,1.40625519703728,0.0274533358181919,0.0313058392036735,1.91108664946601,0.413103314707751,4.05856009843433
181,181,1.01379034955989,-0.243727187934508,0.916118781469231,1.38422336170993,0.0349119881196205,0.0745237906617707,1.87775634108981,0.102551415944908,4.48848151737893
182,182,1.02702360215213,-0.243501893964145,0.918314833641348,1.36716482392858,0.0334595867820504,0.112662271504162,1.97699597118039,0.486700752626446,3.82006223062574
183,183,1.04034824533131,-0.243345874399412,0.92002899113216,1.36776205542798,0.0280527376647623,0.138900446904943,1.03229951760613,0.334790056945721,2.14744039896389
184,184,1.05381801294776,-0.243315937496214,0.921130611791679,1.38573252266282,0.0149130035662488,0.149648295877594,-0.217695907200191,0.032026482507601,0.679177524728976
185,185,1.06736318016899,-0.243385980514041,0.921956604362699,1.40659925029273,-0.00325456036391337,0.147593399676487,-1.25935605153383,-0.226399489716896,-0.1667980090363
186,186,1.08090335051735,-0.24347497498902,0.922709123471131,1.42077962628295,-0.022953906542215,0.139242437739751,-2.0499995752782,-0.394519687233833,-0.270234906362906
187,187,1.09435819058592,-0.243498608072333,0.923586788301632,1.42124416101908,-0.0374239759540479,0.131328774745857,-2.66394588323115,-0.538957652770187,-0.0128726434233568
188,188,1.1076466085877,-0.243369652236518,0.924784672950614,1.40256533514782,-0.0411236781459267,0.129538564001123,-2.67113265489638,-0.723201868311653,0.801230139858991
189,189,1.12071417879952,-0.242992060310346,0.926388976193324,1.36625220149349,-0.0363769347473983,0.135427378782432,-2.20150034212612,-0.451341889607074,1.09150564401184
190,190,1.13361289105122,-0.242418122779241,0.928271968399067,1.31814631500937,-0.0243349968645286,0.144005573915075,-1.94737986163642,0.0303343909335248,0.992187108562486
191,191,1.14642085938695,-0.241782201389059,0.930303191426752,1.26517326514751,-0.00547182540932093,0.153685496942629,-1.76105069461748,0.0780072517411615,1.01051958246043
192,192,1.15921723555878,-0.241220248711619,0.932349167688974,1.21993559514674,0.0128683015389257,0.163904431696388,-1.56258417287211,0.158469941665108,1.47725936962138
193,193,1.17208242773341,-0.240870156647776,0.934273895024928,1.19758727368825,0.018558844144152,0.173514117785364,-1.79875750843113,0.45983483261963,1.08055787847912
194,194,1.18504163679439,-0.240731136830195,0.936097353805942,1.20128085616566,0.00812680107928224,0.183511182541217,-1.91315786277485,0.782087974409131,0.556412744517592
195,195,1.19804137146525,-0.240710616914978,0.93791148856248,1.22336714572661,-0.0126759711520333,0.194093884270766,-1.68209237407409,0.897120316195509,0.436151411414613
196,196,1.21104550123188,-0.240812162159651,0.93968640757473,1.25106687290623,-0.0329474070550778,0.203756316275486,-1.57108863449966,0.719932982142526,0.452495226123745
197,197,1.22401826330044,-0.241041152051605,0.941390336964237,1.27275028725147,-0.0502936743991488,0.208830582602234,-1.15451869530289,0.636308472268393,0.671522819094678
198,198,1.23692435575555,-0.241404263958172,0.942988859554634,1.27899318173521,-0.0615987317679119,0.206100123099268,-0.797014838229949,0.683543701213084,0.227902166868583
199,199,1.24990934187422,-0.241997697486473,0.944545543849083,1.26920130313733,-0.0665381083082518,0.195719530955283,-0.581814814657069,0.785389322427619,-0.390088394827276
200,200,1.26299980086281,-0.242822872831256,0.946085735037721,1.25074110661306,-0.0669417582576661,0.179350463739586,-0.598800517242564,0.775623646553278,-1.15070205054253
201,201,1.27598233326861,-0.24374400251931,0.947514958052377,1.22790087978078,-0.0628937829869219,0.157895478313586,-0.765501468867835,0.736260265146532,-2.00124120285942
202,202,1.28864342124825,-0.244623956010387,0.948737688959276,1.20341161650749,-0.0548430415828799,0.133078705377598,-0.834196054616401,0.585996931407262,-2.64112333664458
203,203,1.30076950063311,-0.245324177715542,0.949657136231931,1.18046778524761,-0.0459847485556845,0.106678487248889,-0.864908219769971,0.643939176050981,-3.26269054273678
204,204,1.31220079773868,-0.245827051282154,0.950251402092096,1.15587804070715,-0.035235364622843,0.0763486549391472,-0.584911390282426,0.742214686624217,-3.60609864992292
205,205,1.32308221232757,-0.246228396980691,0.950587793990024,1.12906990607882,-0.0237929938338455,0.0413323357322211,-0.22496016482118,0.773701416065063,-3.72928099955202
206,206,1.33365683194706,-0.24655672352604,0.950701255591632,1.10450249765741,-0.0135674735952994,0.00488485368623178,0.00360885991350358,0.773223766505913,-3.54433502675606
207,207,1.34416746514131,-0.246837867441565,0.950625538944505,1.08439717972063,-0.00546056062448705,-0.0302597427786247,0.324262789768969,0.497509375285444,-3.26790866183372
208,208,1.35485683435771,-0.247095240117769,0.950393316706867,1.0734499644752,-0.00241922481709319,-0.0602966599458107,0.374834862410036,0.318033424109998,-3.04350218099169
209,209,1.36562583799726,-0.247292906010754,0.950000629607472,1.07324143331513,-0.00605701698147815,-0.0846449184638682,0.337380810472552,0.104877719063319,-2.92191693056789
210,210,1.37631386608791,-0.247412063149078,0.949430156996765,1.0789665121541,-0.0133311825131834,-0.105523335865393,0.422430377392304,-0.040935299847779,-2.55774590634148
211,211,1.38707039185092,-0.247501308574685,0.948690861691436,1.08853578364233,-0.0236809521787077,-0.124201969596462,0.232977475672677,-0.0870423309891966,-2.28048980423299
212,212,1.39804384293464,-0.247610659822745,0.947787283628798,1.10034473009881,-0.0349611669519083,-0.141814200439709,-0.159943442904242,-0.290324115016762,-2.11029878253612
213,213,1.40938211417884,-0.2477913647441,0.946719403540402,1.11088229433214,-0.0460009425174375,-0.159335276350713,-0.349381387675432,-0.250187483240815,-1.9664086326131
214,214,1.42116760120806,-0.24812836058438,0.945440794896887,1.118998875079,-0.0567083290366314,-0.178552718003647,-0.337238107572911,-0.24034230757932,-1.97636331195862
215,215,1.43329955052695,-0.248589030611547,0.94394890275994,1.12727926802436,-0.0671749560998783,-0.1983961114162,0.0589285670248323,-0.234863202869977,-1.98180625521308
216,216,1.44565104455807,-0.249048464898239,0.942303484569828,1.13755785583276,-0.0764990019384017,-0.216503203449981,0.60770929966418,-0.0607235217547482,-1.99448866498219
217,217,1.458095911798,-0.249380715079643,0.940560413552255,1.14922543608792,-0.0828906188965297,-0.230100448359726,1.24434463381701,0.33947668281026,-1.79717331989897
218,218,1.47050925536345,-0.249458518520453,0.938772025008403,1.1620106883671,-0.0830510460952018,-0.23737040056242,1.51090086707444,0.813586121286203,-1.62727242305022
219,219,1.48282779630023,-0.249171615402793,0.936830110908985,1.17680380405821,-0.077812898894285,-0.237290841989615,1.57337589738055,1.24534329241064,-0.890100886559983
220,220,1.49513516851886,-0.248604313449651,0.934691423860683,1.19503396995454,-0.071133595513891,-0.231221491964984,1.70131583489607,1.31676583595334,0.0473976725019696
221,221,1.50752855198373,-0.247918228971989,0.932502297331974,1.21346556101804,-0.0669286774105466,-0.220761026832524,1.84776542431686,1.11162948680496,1.00793192231474
222,222,1.52010604028491,-0.247272750642607,0.930407879295665,1.23201498685573,-0.0639730329290412,-0.206978851848588,1.77312844014306,0.819802528878691,1.45039879878974
223,223,1.53296646161306,-0.2468258626458,0.92855288543954,1.25069929582102,-0.0570634113020211,-0.190347496709956,1.93349471732723,0.567029355957834,1.60747630225346
224,224,1.54597525947397,-0.246634041606809,0.926891602623227,1.2744523359706,-0.0511923251070929,-0.169136926309347,2.03306219448977,0.556070041997444,1.80891975161399
225,225,1.55906937898243,-0.246586932011269,0.925322212545943,1.30312684761177,-0.0531528700824661,-0.143277111539482,2.19964059176606,0.718316882545797,2.04176078829099
226,226,1.57245428598484,-0.24659354005898,0.923906467808481,1.33289004774833,-0.0653843609017652,-0.114890982341432,2.43194341458317,1.06406652815609,2.4768903033108
227,227,1.58633433786354,-0.246564142477849,0.922706848719471,1.3625894528206,-0.0757766417170214,-0.0845139393021875,2.69388346159997,0.926399835982962,2.75956461782044
228,228,1.6009130918179,-0.246409644439079,0.921786211683108,1.39029757103741,-0.078833451834876,-0.0557622624339806,2.77648269553915,0.565591441807903,3.04712699544299
229,229,1.61665180234519,-0.246085839944262,0.921158940500863,1.41856690932031,-0.0763292287813331,-0.0244932761728274,2.59470087364895,0.22766044833547,2.61902402472575
230,230,1.63341291670394,-0.245652405678919,0.920786539208377,1.45663979374826,-0.0747341358977238,0.0130839093170022,1.97124654976698,-0.164275037888171,3.41545483298513
231,231,1.65050173190377,-0.245176755509547,0.92065220615842,1.49522363872686,-0.0723403126793036,0.0516670022177702,1.30245590166953,0.266819429827322,3.39286620847718
232,232,1.66722439075942,-0.244726660232234,0.920738141449838,1.51652525084343,-0.0661167793931047,0.0831167226752537,0.743220094991745,0.118198022300967,3.34027506163795
233,233,1.68288829791632,-0.244370327476852,0.921025756318595,1.52102348710129,-0.0576598245197712,0.105448558684288,0.759661988787633,0.333896577181266,3.3325661055208
234,234,1.69720184946554,-0.244177478664575,0.921541483691452,1.51950140323361,-0.0503105625345791,0.118918295133034,0.596871880882835,0.552239458672561,2.99996875190947
235,235,1.71062824847901,-0.244104507497515,0.922307077317069,1.51414808690186,-0.0366969699700694,0.125789458853717,-0.352157799392499,-0.208486676380304,1.74303584224456
236,236,1.72360797667859,-0.244049597981078,0.923294304964892,1.50232802817681,-0.0253415000022803,0.127786421248235,-0.586341118029336,-0.408054251156488,0.871635892779279
237,237,1.73658063328565,-0.243910052448509,0.924470267517479,1.48497140483651,-0.0190830428232602,0.127131852779608,-0.994871004669349,-0.271508921357662,0.332074844295003
238,238,1.74998432388079,-0.24358233128892,0.92579649710528,1.46372508808331,-0.0110814861895437,0.1275038291314,-1.81417720933849,-0.379913230314368,-0.47766465332045
239,239,1.76400068909999,-0.243015097651096,0.927349968736713,1.43119303251519,-0.00303061948294991,0.125066650273217,-2.03391325607844,-0.65581205729106,-0.567064584216467
240,240,1.77833661066092,-0.242276072376198,0.929161807101604,1.38837785722937,-0.00129907006162058,0.115883125052737,-2.0872514277741,-0.200600136205458,-0.108181387039153
241,241,1.79271665242127,-0.241441795451238,0.931116176662227,1.35357219441202,0.00390366909993143,0.106272299133968,-2.8568575772397,-0.0192651557211364,-0.26880589864222
242,242,1.80686523670303,-0.240591376356693,0.933091136930266,1.32525219838329,0.0118096101652375,0.101223416902424,-3.06226632259173,-0.184633030174246,-0.528318077236896
243,243,1.82050645779711,-0.239806265343246,0.934959675849243,1.29426836585808,0.0176959839757881,0.105616924820526,-2.37228355375989,0.153205957467916,0.399850062347185
244,244,1.83339947570581,-0.239108590523886,0.936711974081476,1.26377334569649,0.014229346103351,0.122760088772292,-2.18285962752658,0.764240150498526,1.62935781360419
245,245,1.84572556630934,-0.238450419448595,0.938430585285181,1.23428209676113,0.0143027732015936,0.148895619932179,-1.59438829101506,0.248913749759988,2.379648516768
246,246,1.85784286612116,-0.237806034446846,0.940124626001406,1.21720401910954,0.019615410062719,0.176407152652295,-1.4220077336534,-0.241128056515197,2.33101137665777
247,247,1.87011070364998,-0.237145474676505,0.94180181916558,1.21155408528461,0.0237910088358716,0.199251244403634,-1.5130882915314,-0.416141581171108,1.5989489621462
248,248,1.88288957969874,-0.236434929558567,0.943467367044506,1.21260536159867,0.0251771171744366,0.211145404675906,-1.25923473190515,-0.617770289139395,1.21965127866596
249,249,1.8964572788136,-0.235706361986679,0.945199501428343,1.22757004463314,0.0264776588078326,0.212092033353755,-1.18569984146833,-0.963726404106743,0.5956211060006
250,250,1.91057597878727,-0.234976630217543,0.946995805078967,1.25688298997049,0.0256728263081717,0.206462408425325,-1.39818684475386,-1.16008897045624,-0.293449867769232
251,251,1.92483366547107,-0.234186897985221,0.94873801690685,1.28663861826466,0.0222463799210683,0.195319563164596,-1.35211893305616,-1.15983931247526,-0.988735242996551
252,252,1.93881847270617,-0.233278926690602,0.950307478192576,1.30755786588646,0.0200739390618974,0.179554565560063,-1.26635771113695,-1.10582047130055,-1.88407234643546
253,253,1.95211879545681,-0.232195183435644,0.951584962176512,1.30913293367232,0.0210883150120749,0.159108182713674,-1.16008402931157,-1.22252453250991,-2.72742924767999
254,254,1.96468085324668,-0.230843979019427,0.952584198648196,1.2818459734576,0.0258870857306228,0.130477787638921,-0.810170875499922,-1.27886762386986,-3.31441642382733
255,255,1.97678290347975,-0.229258619453458,0.953388385728826,1.23103006337468,0.031552110156855,0.0944786167894369,-0.390487558970172,-1.13660038579015,-3.61396992143739
256,256,1.98851099901536,-0.227571990257771,0.953980359805912,1.16982500349512,0.0404210560779586,0.0554511476631482,-0.0228625220852097,-1.33063908731782,-3.85181324379398
257,257,1.99995028804149,-0.225920258802012,0.954340766228873,1.11349488907158,0.0501591559307102,0.017092103692514,0.354691902824103,-1.29799926625099,-3.56837626066508
258,258,2.01118527050133,-0.224442541251705,0.954448149185602,1.0773565134838,0.0569135733570462,-0.015422249187918,0.468280403692144,-1.07011987454575,-3.29382270799459
259,259,2.02196659877351,-0.223096671010285,0.95427369669824,1.06196709081055,0.0626726402929287,-0.0420929475879384,0.621170276172246,-0.826843018451739,-3.01636122774642
260,260,2.03223950066484,-0.221791531987364,0.953834045151809,1.05836458823559,0.0685287505419158,-0.065901287469692,0.819363687773892,-0.627934136723015,-2.6382393245854
261,261,2.04237945183437,-0.220595471767442,0.953173075885841,1.06462390412027,0.0728256463951091,-0.0869108740043042,0.637634767053253,-0.377768846354807,-2.46915741706992
262,262,2.05276109555058,-0.219578070242935,0.952332594983895,1.07578384957976,0.0742791562087528,-0.105902623307834,0.420806983849526,-0.27342572528248,-2.20504400257184
263,263,2.06375841893417,-0.21881017275,0.951352051016946,1.08797463768331,0.0743767878931256,-0.1241289969761,0.0277026062061109,-0.0352192171623621,-1.77428830402912
264,264,2.07548337443333,-0.218325336016007,0.950213819060494,1.10385857371637,0.0704077541400882,-0.142107872817766,-0.176692742355435,0.0360713987519253,-1.55383066796741
265,265,2.08768512146368,-0.218080619860894,0.948892405776683,1.12780995213369,0.0582810866039129,-0.158192561350511,-0.227764566482665,0.169837602373987,-1.56218005810492
266,266,2.10019246416382,-0.218031557989018,0.947410435794382,1.15548161434641,0.0409092996297878,-0.171755051933768,-0.179682684404079,0.161249405090354,-1.65990303862723
267,267,2.11283413607302,-0.218131772977442,0.945786260462227,1.18295893418644,0.0243964201403083,-0.182560345664879,0.140600179315071,-0.190728380740462,-1.61237954361847
268,268,2.1254395784367,-0.218333307332496,0.94403417156903,1.2069445317578,0.0108527592106446,-0.190220207758911,0.447725774287255,-0.528724917100047,-1.67832964956081
269,269,2.13798781031645,-0.218763310569426,0.942061473577479,1.22343921892214,0.00407502364202948,-0.196515673664867,0.88036365711378,-0.732640947524993,-1.27401659711742
270,270,2.15059123675321,-0.219451761886922,0.939851820510377,1.23349280279495,0.0029773753450688,-0.202784903259429,1.26424755619962,-0.552582659895848,-0.804085435291021
271,271,2.16328118479481,-0.220205845896972,0.937529236922339,1.23871240930963,0.0075535410389827,-0.209055864729956,1.67622745472175,-0.240519151841104,-0.388010229562217
272,272,2.17609054431503,-0.220835147272474,0.935215465685457,1.24194339627958,0.0135564799250969,-0.213262864312856,2.12736857612265,-0.0612363159328157,-0.0399022935264804
273,273,2.18905370422965,-0.221151039812814,0.933030887343001,1.247701729415,0.016166289793842,-0.213492164053242,2.40959929187619,0.110294238971556,0.0660157798487192
274,274,2.202047508691,-0.221028158792778,0.930872794871874,1.259150057748,0.0232603281591967,-0.209452886686913,2.40822065787512,-0.107758443603102,0.19248709511183
275,275,2.21505245454612,-0.220595368163849,0.928653761616711,1.27665573885296,0.0374092585225797,-0.201343873508319,1.94689889922225,-0.314343989783335,0.24846263012728
276,276,2.22825869388832,-0.220044676340266,0.926517461876671,1.30071588987004,0.0548868096111684,-0.18862933341401,1.42871823390046,-0.30298187909677,0.725618404689405
277,277,2.24185564389592,-0.219566651131443,0.924608488686628,1.32921417917035,0.0703480082682621,-0.172381111505708,1.38403284329776,-0.0600374299564416,1.48094373013089
278,278,2.25603201420722,-0.219350947919109,0.923072408700314,1.35780834695723,0.0788934015092746,-0.153579294796692,1.80266752361636,-0.17045182171007,2.25544374813555
279,279,2.27108284137343,-0.219481240801137,0.92188282021174,1.38953899636518,0.0726679831146139,-0.128004111476649,1.78066281935975,-0.348549505852364,2.54083629852107
280,280,2.28688149638098,-0.2198284937796,0.920946432079861,1.42421801593139,0.0528595985494952,-0.0961184091614748,1.64812671676584,-0.162911877035009,2.60806625367486
281,281,2.30298358741291,-0.220264319741271,0.920308396240394,1.45671973887899,0.0292718400189016,-0.0626415432234753,1.48561997907708,-0.252190263394748,3.01861685717259
282,282,2.31894515414603,-0.220662139930786,0.920011535115097,1.48470345433483,0.00811608156960412,-0.0280156940491492,1.66820524686492,-0.376316820523197,3.15715032047208
283,283,2.33432289046324,-0.220896733530578,0.92009564827945,1.49848776658334,-0.00870267133598465,0.00108658737243818,1.68752032985914,-0.300132436046808,3.31016817121963
284,284,2.34901803450286,-0.22092211400293,0.920696287797766,1.49403450028872,-0.0149379879544386,0.026825984001406,1.85434813672185,-0.665705935581166,3.62094730712574
285,285,2.36332474278691,-0.220822584005155,0.921791213047156,1.48111889401395,-0.0273741552930892,0.0543658399025743,1.22045891984956,-0.132673300110331,3.29762222397292
286,286,2.37739005539746,-0.22066865715628,0.923180238363197,1.46629214759692,-0.0362740812303553,0.080199171702805,-0.293696578295595,0.0985417025247647,2.52727017917245
287,287,2.39136171480492,-0.220530818949959,0.924661437601265,1.45187312749056,-0.038077556720334,0.101297112586836,-1.31169639684038,0.0924665435573984,1.37103954222553
288,288,2.40538778721077,-0.220479673825312,0.926030844396355,1.43833152060398,-0.0362704899985428,0.115860902308586,-1.58327708367159,-0.0408475850847984,0.791898499885416
289,289,2.41957243821482,-0.220564827694647,0.927298802397136,1.42535721261899,-0.0328269283905188,0.123921518747359,-2.45067504869397,-0.180836874761037,0.01463003555944
290,290,2.43381618576199,-0.220738892225896,0.928606256170167,1.40757840260382,-0.0287595514896585,0.125541235208247,-2.74663200683322,-0.343775629793822,0.409730673853851
291,291,2.44796190515139,-0.220925761077063,0.929940273948255,1.38411958796521,-0.023493667369398,0.126320860233433,-2.69327496130814,-0.486321434138253,0.977950839922427
292,292,2.46185281710957,-0.221048090260881,0.931283381590949,1.36120950581911,-0.0230304527031916,0.128213309350414,-2.26249861553292,-0.382863034317523,0.985359909525197
293,293,2.47533221826075,-0.221027987522568,0.932614227495694,1.34061515850008,-0.0241142852853662,0.131623178165095,-2.03236003074208,-0.074381985056706,0.713200217401563
294,294,2.48821208456054,-0.22077898065701,0.933922044787127,1.32244318480384,-0.0194461022490232,0.140027309413969,-2.02927218298849,0.0904779003103506,1.18869325220747
295,295,2.50059496986835,-0.22035010455118,0.935220171462393,1.30713375976661,-0.00922255876676367,0.153054678073746,-2.34863554589693,0.122411639906353,1.42104292946818
296,296,2.51276088321362,-0.219868518181601,0.936521388769838,1.29402542179058,-0.000880314515374384,0.167185215112754,-2.36878526896811,0.517125421355735,1.20937626619034
297,297,2.52499103638767,-0.219463401416606,0.937837843626899,1.28158573910738,7.89972699664182e-05,0.178134349483988,-2.21741794602995,0.82916455828058,1.08484775815382
298,298,2.53756784094055,-0.21926541095387,0.93918047687831,1.27138392871619,-0.00381303314425022,0.184996095641749,-1.97405367363993,1.1471712242932,0.97881925903621
299,299,2.55068313768537,-0.219298568863944,0.940619120604219,1.26514276338143,-0.0119528309352152,0.189055103830329,-1.67299497544953,1.05123210757822,1.00271458419463
300,300,2.5641502689036,-0.219479934881843,0.942149621167949,1.26388913998209,-0.0234863714442876,0.192684885148539,-1.51561982358226,0.847323581061355,0.717884462770707
301,301,2.57768474578194,-0.219779462414677,0.943669822269204,1.26319613982129,-0.035668483439787,0.1939063755278,-1.36287971635422,0.666916694256921,0.0533361222777908
302,302,2.59100233505249,-0.220165844019878,0.945076067088056,1.25829274738916,-0.0447379069726623,0.19017920823878,-1.17541364383718,0.670714860322356,-0.6352958912469
303,303,2.60381930565745,-0.220606566086979,0.946263031673543,1.2472350236903,-0.0482892580038727,0.178845638722278,-0.999064143986477,0.622824946451258,-1.51349359504251
304,304,2.61609801952469,-0.221151541649004,0.94725880378775,1.22615073256893,-0.0456028653354982,0.15640807796722,-0.869143265305166,0.620006828130611,-2.17537358242336
305,305,2.628030505876,-0.221823609414215,0.948136193707714,1.1980964874064,-0.0395498663993734,0.124596308658349,-0.933061357005932,0.800603249694785,-2.84862640667301
306,306,2.63967795547354,-0.222548697279925,0.948854875939449,1.16760097221169,-0.0319741548340894,0.0880945329724099,-0.738656589181541,0.966026005354995,-3.26486025669662
307,307,2.6511014608402,-0.223252417155936,0.949373380269847,1.13883031973596,-0.0254987166894608,0.0512020986262679,-0.415211621140278,1.07073994632174,-3.46566307666279
308,308,2.6623620005176,-0.223860035450459,0.949649024147128,1.11785557590299,-0.0218608848348046,0.0189817480764288,-0.041549000104054,0.888624789577828,-3.39296057565951
309,309,2.67328195672171,-0.224382623391447,0.949663569892846,1.10233860602113,-0.0209438099191332,-0.00890522875404865,0.30629038272511,0.792556031482394,-3.13857399944533
310,310,2.68382342773835,-0.224871107202412,0.94944873812871,1.09064811385467,-0.0255610019042514,-0.0356265733586981,0.492195341088273,0.651937261904497,-2.7410534018354
311,311,2.69425615231277,-0.225309854252905,0.949034677897478,1.08458235819579,-0.0322530960544556,-0.0611135346203508,0.397400945781572,0.439285970214222,-2.73739279031396
312,312,2.70484891124194,-0.225682747340209,0.948449806806213,1.08271215265098,-0.0380309382499349,-0.0854332140070976,0.475112770835032,0.301527114068405,-2.56019818488511
313,313,2.71586965753432,-0.225973264290266,0.947720676783469,1.08579046411959,-0.0414781741619177,-0.108797906726593,0.322842123985537,0.0758808649876021,-2.56488105334621
314,314,2.72737271058101,-0.226168959075448,0.946848411443703,1.09695353754981,-0.0449615691539693,-0.131456845942061,0.0107721244970615,0.0764272403278966,-2.61380817664009
315,315,2.73917885891963,-0.226281764077138,0.945818226530624,1.11528561782501,-0.049407612311162,-0.153708185445262,-0.358681165196645,0.0542845507903485,-2.58863684514962
316,316,2.7512044535042,-0.226330692125382,0.944628383211131,1.13761244580218,-0.0534986060699999,-0.174977439972682,-0.405056868063463,-0.0206882224338483,-2.38337340367942
317,317,2.76336523615084,-0.226333587955159,0.943272892537164,1.1583225690664,-0.0553872990599343,-0.194242091954425,-0.150418923369446,-0.0646963071870754,-2.23594088079723
318,318,2.77557699059886,-0.226306936942401,0.941741572951938,1.17193092189518,-0.0547696771391937,-0.210625354386303,0.291411838016057,-0.0720816913779011,-2.22693549420127
319,319,2.7878495815427,-0.22627282415119,0.939946332215374,1.17663097174179,-0.052558751621494,-0.226298770503335,0.879484140195797,0.0478313285831448,-2.13663193469916
320,320,2.80023716742867,-0.226218444502572,0.937889791250103,1.17898426089595,-0.0501757345473276,-0.241787210669726,1.54349298827653,0.287599232844407,-1.80010554057755
321,321,2.81272279462786,-0.226106923595778,0.935692086027475,1.18196260785616,-0.0496360980697629,-0.254649640354419,1.7469174048488,0.773324870725951,-1.38072819456446
322,322,2.82529044202669,-0.225901360905043,0.933469574273406,1.18873874654091,-0.0518296126165819,-0.261929008547345,1.73509220214787,1.30066994895773,-0.845959362037259
323,323,2.83792519943101,-0.225564714570633,0.931335484639252,1.20130006052013,-0.054399329062618,-0.260761693548773,1.78936140212405,1.32738847549451,-0.117374879466478
324,324,2.85047099690137,-0.225006612857087,0.92919495989268,1.21677108869013,-0.0573280556368831,-0.24993621852056,2.0566214600783,1.08642406613178,0.629743334829109
325,325,2.86293901972657,-0.224249520119549,0.926963839038478,1.23173677706132,-0.0648616322471604,-0.231151657311049,1.98097770796404,0.854340086563165,1.33307842721853
326,326,2.87556690828618,-0.223424877389395,0.924769181551185,1.24799308248347,-0.071737041117757,-0.206793520242146,2.11362960810759,0.595406469853314,2.01040559422355
327,327,2.88859336419889,-0.222663776538552,0.922737835534656,1.26798331362548,-0.0697622724299046,-0.179128513864774,2.39428300095078,0.478743064749279,2.34091275161957
328,328,2.90225758619033,-0.22209760993605,0.920997165685216,1.29318246526158,-0.063803179260446,-0.150799346283577,2.71387472848947,0.553640906651594,2.52914889341531
329,329,2.91683059552768,-0.221801083060288,0.91941992984281,1.33026457803247,-0.062865833974327,-0.119902581128672,3.11659254470012,0.799581286740931,2.8329368832578
330,330,2.93215431676633,-0.221685204325448,0.917920549755722,1.38047690138699,-0.0667584840164824,-0.085386644667506,3.11791232530299,0.765797128112773,3.26794883423093
331,331,2.94782309775068,-0.221637144418726,0.916689860725408,1.43290165586736,-0.0671701613981504,-0.0492403199976223,2.83906642470765,0.204767410415914,2.97702790340564
332,332,2.96343120599453,-0.221544034159581,0.915917686897834,1.47932122556319,-0.0679806756358037,-0.013532581152005,2.63971769020226,-0.144601189959168,3.21933535909904
333,333,2.97857383344799,-0.221292287512452,0.915792402928664,1.515537781761,-0.0722549592417285,0.0198163838810538,2.4205188498706,0.141828142869001,3.97251192175286
334,334,2.9931686643121,-0.220847071717633,0.916536703836234,1.52623648736697,-0.0734631426520647,0.0499590200846592,1.56312886708628,0.260154950237397,3.57817859668443
335,335,3.00748460513645,-0.220283791815189,0.918031666143593,1.51770972954377,-0.067577650340141,0.0787052965440851,0.807314848266959,0.344608418794924,3.7568331608669
336,336,3.02164519437399,-0.219653611944758,0.919951512151782,1.50344853753643,-0.0579183168788331,0.107248153817482,0.632325935390054,0.902124873079951,3.5213755784203
337,337,3.0357745062626,-0.219008054357354,0.921968138538711,1.4960736826136,-0.0423529378366762,0.132792398997106,0.0969217538393664,0.294245540271724,2.51307164281442
338,338,3.04999679730897,-0.218399245908161,0.923750299050068,1.49733247002161,-0.0276601598456693,0.151933213472093,-0.315204858046943,-0.327783234637629,1.3065895708595
339,339,3.06439684779095,-0.217814596533035,0.925280979151522,1.50395153596187,-0.0203338233998914,0.160173689606416,-0.869828478456353,-0.0980760337796855,0.456002192869698
340,340,3.0788932025973,-0.217218146560292,0.926789315132372,1.50845318655857,-0.00945259556517207,0.158998332784067,-1.77165888045635,-0.37879992839642,-0.531445758693304
341,341,3.09336003823775,-0.216629681401684,0.928306471003916,1.49997802683752,0.000342784495588341,0.15230120151303,-2.03351919978554,-0.529126341068885,-0.6621885273346
342,342,3.10767021313691,-0.216071875611749,0.929857546736192,1.47704584203283,-0.000715626051644243,0.142880179948218,-2.18424960299085,-0.169880916259734,0.0351388055624455
343,343,3.12169486216358,-0.215569977961099,0.931462099832305,1.45058395523389,-0.00408800811614264,0.138788755592013,-2.94356220606897,0.0641156724731603,0.629355294329468
344,344,3.13533073182256,-0.215191322630753,0.933141308344043,1.41611497275102,0.00409466358735895,0.144683917230212,-3.18239523173874,-0.380700921422383,0.459090647864818
345,345,3.14866029721691,-0.214925390410128,0.934881131530279,1.36425399034921,0.0103851572843486,0.157162935273697,-2.61038592995059,-0.340296530642686,0.761458479875115
346,346,3.16183302986445,-0.214679842678843,0.936643785433768,1.30523649994672,0.00597353894501254,0.17436372026774,-1.94004810552376,0.393194337066911,1.7407895821209
347,347,3.17499978115577,-0.214359510019458,0.938389543897065,1.25707779477933,0.00204758568447364,0.192211202652981,-2.13299940247949,0.470799766598491,1.79659763562659
348,348,3.18831267857267,-0.213866711808427,0.940076807345856,1.23189102263181,0.0092913687059172,0.203962207548244,-1.70693184076847,-0.353277955311119,1.35163332925935
349,349,3.20183008984252,-0.213208856057841,0.941718547901064,1.23983347805692,0.0219144199348202,0.212510255199258,-1.90433486233953,-0.615230228540945,0.64784872522703
350,350,3.21545124166911,-0.212449899780456,0.943344048638319,1.26659996428802,0.0352108081577309,0.219019176681334,-1.44347285263793,-0.838284809935272,0.357884985326766
351,351,3.22909032636013,-0.211573981743338,0.944934138603001,1.2978233391659,0.0480894963056546,0.222975556245789,-1.05557545187985,-0.982930351081097,0.303404514757672
352,352,3.24266159197896,-0.210563584488609,0.94646728267592,1.32272582610749,0.059383549658687,0.221634753458326,-0.94801377223475,-1.09939338352869,-0.0312467664724265
353,353,3.2560798916164,-0.209399666023358,0.947918975659888,1.32998860017046,0.0653576921943553,0.213149833398378,-0.913863901393,-1.11189282443264,-0.561058103580956
354,354,3.26949618990491,-0.207987403795572,0.949374593543988,1.31784245616825,0.0688255175490519,0.195378431409983,-0.714110618083071,-1.09124735019962,-1.1910816041376
355,355,3.28297009385316,-0.20633351530953,0.950851411740081,1.29746049630998,0.0711580048961498,0.170167827737721,-0.878364196220233,-1.10474694762494,-2.14578613225072
356,356,3.29628027048007,-0.204571464230567,0.952220724363389,1.27231141061625,0.0704142963333999,0.14010833263464,-0.805334143433455,-1.18075105346192,-2.73354008209173
357,357,3.30920525909499,-0.202836401699185,0.953353569250858,1.24577031925324,0.0656303733322002,0.10885861731841,-0.82647430048455,-0.979351235139712,-3.27629320057899
358,358,3.32152339277888,-0.201265276175817,0.954120348696105,1.21926978720274,0.0616062131192901,0.0802081122002354,-0.480644344357658,-1.04694645528319,-3.36662730363654
359,359,3.33292083230268,-0.199833663844124,0.954497152074447,1.19006258995348,0.0600677437290075,0.0524007640484291,-0.268256534820729,-1.0324499424818,-3.59279484316924
360,360,3.34354797746646,-0.198447801986123,0.954574247859337,1.15568162315874,0.0583432020961091,0.0215731025894018,0.175793310500148,-0.904335485911431,-3.29038360923968
361,361,3.35387894716016,-0.197145182394769,0.954390554774023,1.12435922867434,0.057881362611235,-0.00963788269621637,0.39317849916695,-0.697219520346368,-2.97125013098432
362,362,3.36438764454748,-0.195967033827284,0.953982565434814,1.10106811002806,0.0605068302060386,-0.0398277847772263,0.57156575991602,-0.56686585871639,-2.70066058260859
363,363,3.37554795208817,-0.194957533438012,0.953384900604014,1.09303523245867,0.0651670734259621,-0.067036489027577,0.719883815029167,-0.376721075286504,-2.38390205662224
364,364,3.38742584063789,-0.194135792724189,0.952574539560952,1.10830943853256,0.0694878203018254,-0.0891734956121824,0.519431103199896,-0.115391753869467,-2.18217946891126
365,365,3.39970698446375,-0.193478481030007,0.951531574656902,1.14377806573912,0.0730914554208783,-0.107269613771598,0.218121590420979,0.0758289477851666,-2.10136581175952
366,366,3.41229359000976,-0.192966003564748,0.950292177102566,1.18682329146179,0.0744988511576193,-0.123462009829694,-0.145597410727827,0.254576234151852,-1.90584847177941
367,367,3.42508629837942,-0.192577263173767,0.948888417045879,1.22726299202919,0.0703855353019107,-0.139190352007652,-0.370684464714816,0.418960349677286,-1.99545625600672
368,368,3.43798471572596,-0.192290251712037,0.947347764815247,1.25623845090393,0.059442687606857,-0.155945945016113,-0.255080242833286,0.454694752566382,-2.22958727120359
369,369,3.45106920491919,-0.192143939718832,0.945634086516507,1.26974508721139,0.044253021088991,-0.175685426317813,-0.0136054999487334,0.11738254077157,-2.35167190662042
370,370,3.46440363390403,-0.192153752568111,0.94372734264056,1.27322992994068,0.0299781830429407,-0.197347887375174,0.462883119246253,-0.382282262965096,-2.24411587470628
371,371,3.47786269219426,-0.19226106810703,0.941672727396611,1.27134765277729,0.0166633568106166,-0.218040347541385,0.770524575676482,-0.711962419816181,-1.9094375135442
372,372,3.49132200720133,-0.192406207408016,0.939511037355659,1.26842894002264,0.00776725759616491,-0.235442421728717,0.844490005783895,-0.81075972175697,-1.58002611669524
373,373,3.50465882184938,-0.192528634884128,0.937279202244877,1.26785702175124,0.00756360418689188,-0.247734054264774,1.19062446112675,-0.743067212893004,-1.22780930607777
374,374,3.51770785543156,-0.19267241017049,0.934873229319299,1.26486731073248,0.0222494300423435,-0.256688987765993,1.81512893945593,-0.549224250089884,-0.834450338498392
375,375,3.53055134735673,-0.19287604672302,0.93226067720915,1.2570875733066,0.0447644896972067,-0.263153034503366,2.69297335609507,-0.189141079904076,-0.474631790630394
376,376,3.54344082299071,-0.193071930344763,0.929581033689257,1.2506219274764,0.0595570583435883,-0.264818684096897,3.18632732575011,0.312287202598109,-0.278716414298529
377,377,3.55662964795958,-0.193194396662506,0.926971449766311,1.25289178668142,0.0673706961904746,-0.260392867295223,2.98422075225652,0.157880478890445,-0.134237591742505
378,378,3.57037221006913,-0.193178669846575,0.924568489372734,1.26916412312256,0.0723841643848124,-0.249570837048534,2.2573250181805,-0.218645728326552,0.199357437476862
379,379,3.5848862371548,-0.192980521092573,0.922129753052442,1.30221911507187,0.0723499274974791,-0.229322934387072,1.50302069122453,-0.217979656195472,0.71317903486823
380,380,3.6000051539389,-0.192642874831641,0.919561866252735,1.34540629151328,0.0736390052338028,-0.201633215624819,1.55112113519189,-0.115010411114568,1.67224536936054
381,381,3.6154054451524,-0.192231506007212,0.917226124998662,1.38963534979651,0.0735952913665256,-0.17080194070257,2.05478422113845,-0.0239131544240094,2.85073095151108
382,382,3.63076297708608,-0.191814040091543,0.915481877550219,1.4263911528475,0.0674085471844431,-0.13859535935219,1.4934313039251,0.00697590653238734,3.18771904909885
383,383,3.64575386919193,-0.191460425635175,0.914685294652347,1.45446716754613,0.0590205929529829,-0.104005970140098,1.81261403468623,0.0391435440663531,3.63764695490939
384,384,3.66039083213966,-0.191202059388398,0.915230553051317,1.47162383270832,0.0534093471304575,-0.0670091395734613,2.06915073126298,0.239126057700797,3.95597532381377
385,385,3.67488685496719,-0.190991588477656,0.916885043960742,1.48170862334689,0.0436384946440377,-0.0226684582956378,2.31187986257422,-0.207819563995806,3.32904929885408
386,386,3.68921947792897,-0.190783256646763,0.91906166137643,1.4754924695513,0.035900996346649,0.0184202114553645,1.96194353845294,-0.516140744578896,4.03547149635543
387,387,3.70336747738138,-0.19053299011196,0.921171038672692,1.47093623394716,0.0233448907502447,0.056510138020058,1.42924578276904,-1.19387578833127,3.91488887401963
388,388,3.71731087859262,-0.190198223931694,0.922620733793161,1.47403377972694,0.00524760392984026,0.0866500000994949,-0.0864291991616203,-0.0826667393109894,2.62735398391399
389,389,3.73096158426967,-0.189755248413378,0.923206295557974,1.48098382695241,-0.00136892469197719,0.101318804089318,-0.638970409204691,0.0593236864588308,1.83911143213924
390,390,3.74433266117407,-0.189235251294474,0.923327592915575,1.49368898830034,-0.00335404056053778,0.106001288224688,-1.32552939237436,-0.032525853463422,0.846907160009264
391,391,3.75755737225872,-0.188676453440271,0.923293526358723,1.50339377110105,-0.00343999399699384,0.105765432831181,-2.52358113089207,-0.405319768228029,0.293936847641787
392,392,3.77076925029658,-0.188114395576379,0.923409206342976,1.50109998092956,-0.00367747379530684,0.104301414285864,-2.75546560628678,-0.377954876330607,0.516118861398822
393,393,3.78410110949714,-0.187582786836705,0.923976384624859,1.48017927441615,6.74283857278589e-05,0.107384799784018,-2.70963453108596,-0.245588621454067,1.17439837911867
394,394,3.79757038481781,-0.187014682396428,0.925088037910102,1.44634234435933,0.000682321721278482,0.11470557174523,-2.50850635894418,0.0521503629058143,1.63676918117191
395,395,3.81108666465901,-0.18638361661355,0.926542974401128,1.40695213504438,0.000772459693948508,0.123098801903546,-2.38312814923922,0.0367472165440291,1.32740816428763
396,396,3.82462071628696,-0.185783987021691,0.928198953179119,1.36878291939627,0.00489092979840096,0.132932335520163,-2.38514775963911,-0.300553380412276,1.24392037763457
397,397,3.83814457255938,-0.185311408634958,0.929912322214481,1.33589751389037,0.0111654455552013,0.144769553060803,-2.35006303185555,-0.596105934880924,1.60122382368735
398,398,3.85163169635712,-0.185062921632146,0.931538215291869,1.31392653488598,0.0106493248722439,0.156219680949063,-2.17883805457793,-0.0298258416081945,1.41817714462465
399,399,3.86509238864688,-0.185083773618777,0.933102151579357,1.30573220479312,-0.000563312339111777,0.168406312457207,-2.35405736085547,0.379199170998031,1.10299802764754
400,400,3.8785450491805,-0.185311997569455,0.934704641152048,1.30345393225935,-0.0129458314136739,0.183727012598959,-2.11208686485484,0.563584717648928,0.902231857598756
401,401,3.89197647068171,-0.185685367799687,0.936311276644708,1.30191383520098,-0.0268462910875006,0.1971181113251,-1.66932611659425,0.94969990780171,1.06600454892206
402,402,3.90537362734596,-0.186141192309162,0.937884560177656,1.29917773245961,-0.0389317666659903,0.205289815040315,-1.36151133788256,1.04611554009851,0.991966639780478
403,403,3.91872396429588,-0.186615463628629,0.939383261745107,1.30406282913477,-0.0433738531324494,0.209044497213609,-2.34921875634659,0.731523287117079,0.0916471433003964
404,404,3.93219418089057,-0.187167409525061,0.940858133600972,1.27541460239999,-0.0461037220163084,0.199107232768292,0.30560051470793,0.939863034177341,0.422915613181289
405,405,3.94579471425041,-0.187843394203989,0.942338248513067,1.27468754417666,-0.0534077233908305,0.188172200275109,-1.71953459648462,1.47339664388882,-0.664316482931969
406,406,3.95927920433406,-0.188557398075424,0.943746626149404,1.26501695932,-0.0391233993413443,0.172494834615387,-1.14654892246241,0.389385662541475,-1.59382512046139
407,407,3.97240152400337,-0.189221655576229,0.945005478194644,1.25571278621412,-0.0281474251073681,0.153393149808148,-1.28762932297103,0.65234724397434,-2.38667520286649
408,408,3.98491595802297,-0.189746782646752,0.946036018001653,1.23993050432187,-0.0226258542062654,0.130963045430091,-1.05647943291381,0.909069222441043,-2.7897725354591
409,409,3.99663708354417,-0.190123182567288,0.946849125830986,1.21145557511637,-0.0197993297050775,0.103844648651625,-0.624854304884878,0.880456396548483,-2.96632248563086
410,410,4.0077314935236,-0.190409268808024,0.947500249853882,1.17672305998412,-0.0180328021254316,0.0724651998571162,-0.55699580512384,1.00330079377809,-3.04057463720695
411,411,4.0184814292263,-0.190616196580174,0.947975452888844,1.14222397325919,-0.0164326879890979,0.0392130603999697,-0.531310232779062,0.809915083639372,-3.10521498965095
412,412,4.02916865523533,-0.190754807541569,0.948259300484042,1.11202792581885,-0.0162722966942715,0.00688003088170264,-0.214396754439978,0.576536745581046,-2.93793394726755
413,413,4.04007454716492,-0.190835920998654,0.948334894418532,1.09387476974187,-0.0182290293487593,-0.0216153946716492,-0.031045226264955,0.171739707076061,-2.79020213538948
414,414,4.05113023081666,-0.190822318099348,0.948181845653503,1.08964663192295,-0.0222927002665745,-0.0456551343228629,0.106493256852829,-0.0080298746663373,-2.73120219408514
415,415,4.06214949207659,-0.190705864821019,0.947814852786057,1.095158547949,-0.0269401763788738,-0.0671314113175732,0.217560372499388,-0.0731698116889472,-2.44640888782617
416,416,4.07323629593737,-0.190541808274823,0.947266205687012,1.10611900702198,-0.031197691562877,-0.0866479594934916,0.0105075905402072,-0.0724203820915495,-2.28706658909059
417,417,4.0844932283074,-0.190385827937284,0.946564503804503,1.11860342110813,-0.037173101767274,-0.105476515291079,-0.240509889688197,-0.130041375600102,-2.2838670396721
418,418,4.09602197954655,-0.190293565950814,0.94573450868322,1.12941107273295,-0.0437564918452539,-0.124587442903758,-0.327006450670108,-0.164401633234287,-2.31845616024343
419,419,4.10786615424669,-0.190320513402216,0.944729700216892,1.13677145822292,-0.0512288318700395,-0.146221534132381,-0.266664468776093,-0.100391083494759,-2.38163521006734
420,420,4.11995561119131,-0.190430627463495,0.943531447253205,1.14340245677523,-0.0598595463454159,-0.170109100432736,0.127048821341547,-0.148821538966299,-2.40822197037185
421,421,4.13222114195456,-0.190540987091339,0.942201016274368,1.15063541200768,-0.0679954665311326,-0.192464322574042,0.712311586062813,0.00486393944054711,-2.336889790719
422,422,4.14459409119723,-0.190567478312321,0.940796009778835,1.15860819346615,-0.0744157391099697,-0.210188699095694,1.20932871216587,0.355358898088999,-2.10863645462228
423,423,4.15700681013903,-0.190424922396667,0.939370682006886,1.16862245194255,-0.0757243452693058,-0.220868157282845,1.41046721724104,0.582639153155956,-1.81976518060432
424,424,4.16939553484298,-0.190029214124902,0.937845119209566,1.18330782893406,-0.0733676541314822,-0.222976349260598,1.58594817667774,0.915008778285912,-1.27032627336305
425,425,4.18180545314687,-0.189434620910987,0.936175447852714,1.2009783490877,-0.0728428204246192,-0.218854907237054,1.81102253396903,0.827313303723689,-0.377920179689904
426,426,4.19433402640996,-0.188762881449972,0.934466719472659,1.21734102913816,-0.0756163185919356,-0.210972241887059,2.0228607112101,0.639104910855878,0.45907049492877
427,427,4.20707979001882,-0.188135852369433,0.932822761814765,1.23300956518915,-0.0805074236364777,-0.199962981602208,2.01066533362591,0.431123616146989,1.11628830940743
428,428,4.22014206426377,-0.187675604370614,0.931346825518534,1.252324794347,-0.0787507564328971,-0.1867797711515,1.92824700575373,0.111238898657534,1.41049197544083
429,429,4.23341787571869,-0.187453291718955,0.930038076001305,1.27998115550018,-0.0704763841418381,-0.169053450769594,1.65171364487043,0.0372434237290154,1.30939286808009
430,430,4.24684371399597,-0.187385750248359,0.928822333734361,1.31302733606628,-0.0685091381380431,-0.146943617172626,1.62342896839363,0.404753424285965,1.55083372335286
431,431,4.26057760177553,-0.187364179566214,0.927693830304638,1.34836594020395,-0.0736833324977617,-0.122479663456861,1.84158483398063,0.553864791618144,1.85747107234307
432,432,4.27477677680263,-0.187279787870189,0.926647461408595,1.38341674801828,-0.0771463833098889,-0.0977599991177657,2.49281529617972,0.417029907278209,2.24115171303493
433,433,4.28959792612739,-0.187023628709479,0.925678424576425,1.41780324785488,-0.0737867909383241,-0.0747325855286872,2.96717725447237,0.131852602062282,2.11849813872338
434,434,4.30548176889344,-0.18651325582361,0.924705418491232,1.45683862288338,-0.0627653223620161,-0.0536681943390521,3.34825108114426,-0.0536179810647577,1.84589196311957
435,435,4.32232241375842,-0.185819557259225,0.923734205015108,1.50860694236942,-0.0514606204042685,-0.0309635986439424,2.45335800412968,0.0281126645488171,1.67572130399504
436,436,4.33945627434737,-0.185064512976375,0.922890212233177,1.56614559219385,-0.0458775915904907,-0.00433576947014733,2.19504264148487,-0.373046813164861,2.02230516682402
437,437,4.35622009787003,-0.184371613203047,0.922298027240054,1.60379171732048,-0.0477096408466923,0.0165257715269328,1.13099580475657,0.7909709721921,2.59601853318872
438,438,4.37195146181476,-0.183866078582372,0.92208159683559,1.61118716628097,-0.0461953824437995,0.0350033481663289,0.589228339996794,0.190980112870356,2.70507169650807
439,439,4.38641139789479,-0.183611924166468,0.922303208671784,1.59850218202145,-0.0346497522775697,0.0565588128471396,0.752624902009646,0.243557721651294,2.63077204873007
440,440,4.40004178869118,-0.183528747301156,0.922887302644845,1.57456542856128,-0.0349643476247702,0.0805969092153227,-0.216472187237348,0.359150911768435,2.42941495025916
441,441,4.4132029503107,-0.183525479299057,0.92374975087727,1.54338405084265,-0.0390678937500783,0.101929460345248,-0.632687775576582,-0.594037895711743,1.92120452969984
442,442,4.42625538093036,-0.183509425666808,0.924804039535316,1.50811360015984,-0.0560414949009782,0.119229057490584,-0.75668598870993,-0.416359461802787,1.78206657997553
443,443,4.43955902647158,-0.183386070149284,0.925960464473524,1.47214654994486,-0.0707907350152405,0.130008576644118,-2.30921393085862,-0.243334190814027,1.80578209322771
444,444,4.4531953704157,-0.183195912972858,0.927275363702887,1.44360583466577,-0.0676987450479799,0.134161970123428,-2.57886550872104,-0.743679839678163,0.435760004368916
445,445,4.46692539622921,-0.182999308327418,0.928817033827877,1.40358222378233,-0.0540713490764278,0.127150856514282,-2.12838216225293,-0.883198812901829,0.0496598635066534
446,446,4.4806269195604,-0.182732393605975,0.930506139770276,1.36235658434923,-0.0434742924337874,0.114028123212033,-2.36375497468581,-0.171505372052168,-0.0216267020202773
447,447,4.49417689358474,-0.182334517692574,0.93225633137645,1.33115556290549,-0.0368953534545874,0.104306471373166,-3.23720221723501,0.24779392405356,-0.731842130295136
448,448,4.50745117036952,-0.181748346976184,0.933975106959979,1.30394209174225,-0.0226841920817675,0.102771793142755,-3.19604189537563,0.196043072529805,-1.2036257801752
449,449,4.52033118356604,-0.180899980394985,0.935673633075769,1.27534991390844,-0.00120291298700438,0.114207261341108,-2.54329802975293,0.578267861114589,-0.138247672866465
450,450,4.53289676781554,-0.179834326914062,0.937411926269955,1.24040558775926,0.0192247266353827,0.135501560872998,-2.28022800574078,1.22771482505979,1.06488404948799
451,451,4.545321628735,-0.17867129887558,0.939166724709166,1.20605815382085,0.0402447281530552,0.159780290375757,-1.01393887296811,0.831549831499909,2.343670279684
452,452,4.55778065233776,-0.177526444314876,0.940912669320547,1.18727659104842,0.0614586305467279,0.180977054225149,-0.812220538609051,0.182801571867798,2.6241406646126
453,453,4.57044973084091,-0.176511193500371,0.94262164536891,1.18421394594297,0.0778715417138149,0.193841179623197,-1.15795227292021,-0.300627120187568,2.02443792736678
454,454,4.58343681411522,-0.175691546562844,0.944349676785121,1.19777656851082,0.0811748180536057,0.199975643855546,-1.30963201528749,-0.506975885007224,1.30955767388877
455,455,4.59662614170662,-0.17498891660821,0.946115719872601,1.22530380907225,0.0714072517595774,0.204152871447897,-1.44295225952191,-0.895215946527428,0.760838405277948
456,456,4.60985874701186,-0.174294638612963,0.947833750427725,1.2562993452273,0.0571566748529321,0.204523105005076,-1.6298469330997,-1.27939578074918,-0.0624360219783847
457,457,4.62297576196738,-0.173499497159496,0.949416873455718,1.2794054870158,0.0442009688581416,0.199496024994898,-1.56018234164075,-1.38651568229273,-0.916378580978983
458,458,4.63581867082396,-0.172493770932495,0.950776996647655,1.28461132036846,0.0387835757847677,0.1874601912201,-1.44129245465383,-1.41282995615612,-1.92280877507726
459,459,4.64849740638375,-0.171189023021274,0.951947497218947,1.26579641127248,0.0425666678765539,0.16450525117143,-1.29770518647287,-1.54702244632651,-2.69759106860705
460,460,4.66112060898934,-0.169650704649294,0.952989736582945,1.22924117735809,0.0491599528964981,0.132100454766502,-0.890369942162475,-1.48563664191625,-3.1269517130354
461,461,4.67352790889358,-0.168003327869774,0.953855916474341,1.1827061255754,0.0548256238605136,0.0960889539663824,-0.343961887662896,-1.25014267420087,-3.25456053774214
462,462,4.68555840519968,-0.166376609012781,0.954496928196607,1.13508785344711,0.0617426816020822,0.0616545750620727,-0.0893358189707892,-1.04410665437482,-3.28622624547034
463,463,4.69705106518192,-0.164905274289741,0.954862167684208,1.09876807673068,0.0676685966268042,0.0310921605720201,0.184210345278686,-0.928681570452057,-3.01741996184288
464,464,4.70768178725362,-0.163555775691421,0.954926815730342,1.07463822014226,0.071034634825794,0.0056956231693867,0.294008114915626,-0.429569031645943,-2.68738968018883
465,465,4.71756007307794,-0.162243427565602,0.95472729536447,1.05636480195709,0.0730805825939162,-0.0176160026685045,0.327492561165695,-0.172265330233093,-2.51116972586289
466,466,4.72717512908211,-0.161029464679079,0.954302110838261,1.04413906432787,0.0749779129686097,-0.0401072468018897,0.214714529549741,-0.0507479119161902,-2.45855237971452
467,467,4.73701569362209,-0.159974505473156,0.953688028715384,1.03790224460788,0.0779442076579373,-0.062283030118475,0.156943058977874,0.195522098340556,-2.26392552244314
468,468,4.74756998376013,-0.159138327132652,0.952920233077285,1.04044422641321,0.08182928212892,-0.0840826543999931,-0.154482465741914,0.410316434697262,-2.21985293678055
469,469,4.75893908117716,-0.158545395032118,0.951997492702028,1.05422747152814,0.0834895538866294,-0.106121841112251,-0.408119283448286,0.403579088421616,-2.25238170100446
470,470,4.77079768239968,-0.158158484456636,0.950899011148262,1.08034908860733,0.0779676191675725,-0.127329521062453,-0.386387305795379,0.453450783677643,-2.32486332612623
471,471,4.78299269636999,-0.157942902252158,0.949626306278648,1.1120603745168,0.0684503881966931,-0.147068671516636,-0.187681103223357,0.378687687514371,-2.18875807095963
472,472,4.79537002178452,-0.157862915654077,0.948175854310092,1.14682186460811,0.058161966747883,-0.164475283841319,-0.0587770532882893,0.0378675395782641,-2.11721644212389
473,473,4.80777544541951,-0.157882182579062,0.946539011809643,1.17892500326619,0.0488350621555297,-0.179005800769845,0.329430311724858,-0.284759958050113,-2.09491839664552
474,474,4.82023069274634,-0.158095820500325,0.94464184251832,1.20845274483857,0.038944392207779,-0.191437778431822,0.728954975343569,-0.451945225330096,-1.96779499631348
475,475,4.83283657356541,-0.158526166029604,0.942483611038467,1.23595405362604,0.0299114644049173,-0.203279663036532,0.976738192148712,-0.282566757615784,-1.54124256111527
476,476,4.84555847802177,-0.159028185287609,0.940160858297835,1.25764555119561,0.0266883947252253,-0.215166347214521,0.96273174522812,-0.142961595479968,-1.01083826947664
477,477,4.85836249075359,-0.159458230129372,0.937768359908011,1.26909213093818,0.0285756055939722,-0.226413845934815,0.923948883925787,0.255962412746659,-0.639951531179139
478,478,4.87121550435379,-0.159673862283496,0.935399566280986,1.27627040559631,0.0338038394778723,-0.233055468896968,1.4689017726925,0.665629763779302,-0.308825004279553
479,479,4.88396475874113,-0.159656303526708,0.932953427699313,1.2757184918755,0.0432515715191428,-0.234654936564327,1.69717022736243,0.89238956588479,-0.201070619751619
480,480,4.89663404897847,-0.159501373855681,0.930361201589996,1.27000257401852,0.0564563119569902,-0.231472297046237,1.7133216369346,0.70210250956482,0.0125488587015644
481,481,4.90945650480799,-0.159240036911366,0.927763620749349,1.26574955750978,0.0698289024313779,-0.223803724446792,1.6331852488751,0.442930714803319,0.561961453471342
482,482,4.92266584737549,-0.158904269506052,0.925300832728804,1.26770623323292,0.0826632142377908,-0.212523995226849,1.30383031914333,0.129033953624505,0.984890981387563
483,483,4.93649577936453,-0.158526522053851,0.923112919713278,1.28034318831531,0.0921670251150042,-0.198026257628585,1.30603954449787,-0.0785391733329328,1.57293248484502
484,484,4.95124359607499,-0.15809270315741,0.921021637877027,1.3097938501047,0.095370103174271,-0.18048556383441,1.31213298099737,0.0926251719156149,1.96359258348945
485,485,4.96675450146566,-0.157581660870399,0.918932151211077,1.3537751485584,0.0889454188262435,-0.160025609597649,1.61641436413208,0.450363196325652,2.34773866093646
486,486,4.98258279896875,-0.157014898326666,0.917110273454335,1.40437596338482,0.07472354353349,-0.136924356108477,1.86374677214984,0.429278978497192,2.15663175142158
487,487,4.99828269963203,-0.156414904473183,0.915821276110109,1.44763017797479,0.0618031848056693,-0.110518515695088,2.41460123125084,0.0647210996688343,1.90965455305789
488,488,5.0134092041565,-0.155805592640083,0.91532947887507,1.47104322340798,0.0561464862230799,-0.0809146572179983,2.84181420701494,-0.467417335777381,2.91809057004865
489,489,5.02788144097884,-0.155218809703805,0.915945404348652,1.48197627454712,0.0526698928926207,-0.038099002371728,3.19529095667657,-0.82380711335748,3.83329573601444
490,490,5.04199506595806,-0.154638248378591,0.917497148323002,1.47994176486034,0.0519083381417414,0.012048977177997,2.67723617325975,-1.08159908007698,3.78779215632858
491,491,5.05587084152325,-0.154017089931386,0.919523958531757,1.46338733352376,0.0613444293007624,0.0580058893139261,1.98090504689586,-1.37296962766706,4.45862575834536
492,492,5.0696292789921,-0.153309441106625,0.921563593320396,1.45097877748216,0.0654257433378558,0.0992677060786692,1.32636637255361,-1.0392257013241,4.51881915103573
493,493,5.08339049707571,-0.152470040166448,0.923152170253464,1.45605269020202,0.0579366707128708,0.129449125843038,0.225459263720562,-0.281789443256048,2.84733998708455
494,494,5.09717901093462,-0.151425167763896,0.924177366165109,1.47028134744077,0.0509755182758636,0.140494771710011,0.0361022039045254,0.339119845123074,1.24506203514695
495,495,5.1109141124785,-0.150206132790646,0.924955575024913,1.48432582528291,0.0438628190250188,0.13740144331082,-1.38074918718271,0.754280864703912,0.159655243396367
496,496,5.12455850984265,-0.148923898489639,0.925662104762737,1.49050168546215,0.040364094395256,0.12678587471202,-2.16972220028314,-0.0438680110896658,-0.737664877903758
497,497,5.13807513694007,-0.147688019289053,0.926467897896968,1.48338070854691,0.0392073581093862,0.114202673951484,-2.16551706593741,-0.550270900850353,-0.85258067823759
498,498,5.15142628574857,-0.146606919402317,0.92753957515102,1.45537333032999,0.0413375663859995,0.108859712328751,-2.0193237057325,-0.640845152836739,0.0131493363979154
499,499,5.1645529264742,-0.145703622668707,0.928941828610504,1.40518993991574,0.04558467957376,0.115769578123906,-1.60374995799821,-0.889498381369507,0.894168776190601
500,500,5.17747777101391,-0.144900776023447,0.930566865358817,1.34292950478568,0.0516236561016702,0.129716340831104,-1.44983232032071,-0.845838440295403,1.1740922407603
501,501,5.19028574357678,-0.144156502328784,0.932317175389047,1.28167366894488,0.0576275245758485,0.14614651188534,-1.43322259456264,-0.726102850607715,1.51093277816058
502,502,5.20306333850115,-0.143431275220871,0.934091097581274,1.23735205737717,0.0580410095188782,0.163146273092637,-1.55149391696309,-0.384909021059833,2.05108627840163
503,503,5.21589872939323,-0.14268851727724,0.935783152488864,1.2199229395244,0.0541414408829811,0.178336591963056,-1.89504384155072,-0.119157603992459,2.14150394751884
504,504,5.22876016890783,-0.141865858275551,0.937405819704112,1.2308792571545,0.0450401660927033,0.192297027113416,-2.43496497721182,0.631516982193571,1.4163711228413
505,505,5.24158947784966,-0.14099041768775,0.939030355462746,1.25984843035127,0.0339488628567214,0.204565708424214,-2.21319307883608,0.999210032964429,0.99544111246371
506,506,5.25443657345064,-0.140162666877531,0.940636854555646,1.29475449245297,0.024291732350521,0.214124158119505,-1.97236666191662,1.08818760654834,0.807790838913471
507,507,5.26735124007419,-0.139482927075861,0.942203303729751,1.32365644067101,0.0181556161821773,0.218641133895438,-1.59029131118458,0.866303154526907,0.526343217769185
508,508,5.28038335910378,-0.13905053262369,0.94370472890432,1.33324644306302,0.013493043814327,0.214415873013442,-1.30230698349363,0.872265450004598,-0.0985631948545979
509,509,5.29378733025863,-0.138940718473089,0.945208626777083,1.32333092751628,0.00912397786926085,0.20040739816536,-0.921200553911409,0.873491057880476,-0.880671778125466
510,510,5.30753202121643,-0.139091000813019,0.946733967222065,1.3030217804534,0.00393973680496021,0.178793387566269,-0.89798520941874,0.960719706926083,-1.74607695380748
511,511,5.32123961608674,-0.139392139430953,0.948179957452485,1.27835021954014,-0.00181944418222831,0.152413626329031,-0.811922183671683,1.12484553493361,-2.40833699294953
512,512,5.33453262142366,-0.139733985605418,0.949444532688038,1.2498996202032,-0.0042337319545723,0.123389552386629,-0.651675113841459,1.16751311520087,-3.00307911173706
513,513,5.34703391309492,-0.140005549282001,0.950424088356422,1.22211365941544,-0.0037828906789477,0.0945909477770077,-0.739993305005018,1.16261796230232,-3.53058290983896
514,514,5.35851217989088,-0.140238059836907,0.95111582703828,1.18689957989598,0.0012095990832297,0.0637506889766965,-0.485243018518472,1.19434646403138,-3.78530462876872
515,515,5.36922212970467,-0.140506463179051,0.951590980260129,1.14497548792277,0.00749442748462129,0.0296151824590862,-0.366060221872493,1.20771135499026,-3.60277242573333
516,516,5.37951547528142,-0.140764151993484,0.95185474073514,1.10566115783833,0.0143612625525148,-0.00503688295661268,-0.225542552192074,0.876995777024381,-3.38500518018347
517,517,5.3897434551909,-0.140963964513534,0.951911286606965,1.07345683907084,0.0195790874926024,-0.0379722199579839,-0.201374624594012,0.595021854886858,-3.18153439127514
518,518,5.40025697445368,-0.141058542924149,0.951763836984511,1.05544111612546,0.0207689927150453,-0.0663691007699684,0.0696327059543604,0.210599391072996,-2.91532683394537
519,519,5.41099476486686,-0.14101604434436,0.951395989590028,1.05671563631718,0.018401191172008,-0.0888881462031276,0.134350414938433,-0.158148132367226,-2.78718104691677
520,520,5.42172466375192,-0.140869585385439,0.950809573139947,1.07027701417558,0.013424326050838,-0.107484240049598,0.320924025738536,-0.250415379578506,-2.41000837241389
521,521,5.43253985391639,-0.140668266904792,0.950031809051259,1.09127903806239,0.00556308202840993,-0.123862195976537,0.308555229826925,-0.16657845698234,-2.2089221016882
522,522,5.44353211906822,-0.140459384174217,0.949085955094161,1.11375544647492,-0.00478490318142394,-0.139597510075997,-0.0125825419635649,-0.123120180223684,-2.10265804927887
523,523,5.45479227725315,-0.140288084498751,0.947991177484872,1.128127010376,-0.0140478705525514,-0.155822195029506,-0.29458652662234,-0.156690094666085,-1.8786503719236
524,524,5.46637883742116,-0.140239543998786,0.946713951984942,1.13230978743712,-0.0232419151615032,-0.173866007449213,-0.334649182639667,-0.291145151439781,-1.86334544218183
525,525,5.47822871930531,-0.140281653697801,0.945239465121395,1.13143622194238,-0.031724451830808,-0.19244839632582,0.0210443333320971,-0.306667037774938,-1.91257979429842
526,526,5.49024993424233,-0.14028192570512,0.943609497405119,1.1294602054141,-0.0371704586733609,-0.208767622303403,0.528260081129586,-0.0281765096413476,-1.9116809291869
527,527,5.50235118018817,-0.140107818311942,0.94186211542317,1.13025408307283,-0.0410566251267501,-0.221006607979237,1.16632871022766,0.72501845349212,-1.69564413079703
528,528,5.51444235583309,-0.139626658580636,0.940031887721932,1.13674962640694,-0.040342735115869,-0.22740979433897,1.54669404622035,1.31988011186222,-1.40896324655129
529,529,5.52642753607811,-0.138715182267559,0.937989758699982,1.15343013744536,-0.0317246501286717,-0.227414101079695,1.65085611562688,1.59655360299749,-0.824201241417209
530,530,5.53836660085827,-0.137459799109337,0.935705220002417,1.17842791716998,-0.0207596388589781,-0.223531536752948,1.63066870950866,1.3428420330807,0.11627646667956
531,531,5.55040506055936,-0.136041787516095,0.933356769322281,1.20862954753426,-0.0150662144886101,-0.215506839528422,1.50527241683444,0.920774450749822,0.662777886052019
532,532,5.56268966138463,-0.134641957911269,0.931121213111316,1.23740154229402,-0.0130094174695748,-0.204549256801882,1.62377099365567,0.554293558264777,1.11278490800737
533,533,5.57536809654237,-0.133440873823937,0.92917454430624,1.26200641613942,-0.00786902038545692,-0.190958752044138,1.84798676359406,0.158786840186,1.52765989746715
534,534,5.58838272411642,-0.132508503302832,0.927486023671731,1.28794887399312,-0.00164653750799967,-0.17258048397254,1.9390849079234,0.127103156420958,1.64827765401623
535,535,5.60163790127622,-0.13172149227,0.925932562184418,1.31563865284083,-0.00399088175462313,-0.149745339413796,2.02887179463646,0.759380044613725,1.97836797443222
536,536,5.61522392264636,-0.1309714143671,0.924552554952254,1.34542072217138,-0.0128449116184412,-0.122800750135638,2.37954242143849,1.26319661960867,2.32755113763924
537,537,5.62923032664993,-0.130150910138136,0.923385261490959,1.37591796698244,-0.0209881427476443,-0.0941713809231236,2.45436642229737,1.22771822925731,2.79215068042194
538,538,5.64374616305459,-0.129153325084545,0.922470595673035,1.40175265847878,-0.0196863452620333,-0.065627498480215,2.75585571835353,0.75450595570021,2.91247963881422
539,539,5.65915980621128,-0.127909470535682,0.921828811446712,1.42625280918987,-0.00646285922130479,-0.0338232283198169,2.50571975094952,0.3167769927011,2.89412958258452
540,540,5.67541039027037,-0.126489822231478,0.921437603830706,1.4554988700233,0.00938873525478772,0.00346432060262594,2.75374150241505,0.274032609314465,3.85372519614338
541,541,5.69191305600058,-0.124998191040347,0.921272757268884,1.48152023605114,0.0243845203530378,0.0420450562006385,1.49340085244954,1.01360366429686,3.4302897877652
542,542,5.70808376297705,-0.123539692572683,0.921308605652124,1.50068786940343,0.0383144185699154,0.0749525955510969,0.628495200537311,0.882689824045511,3.21735695721064
543,543,5.72333966587767,-0.122221030366791,0.921518067121035,1.50844349580899,0.0492796080847383,0.0986237474389173,0.0638079532052577,0.654973005341531,2.99838137827641
544,544,5.73741675658287,-0.121099798475053,0.92190368945814,1.50776819659418,0.05689302055276,0.111677598141007,-0.153596314249935,0.284691620173942,2.46115586915095
545,545,5.75070486738393,-0.120108071380138,0.922493975405465,1.50233260148585,0.0664605096827493,0.117559325192968,-0.26924553714098,-0.278825064200511,1.43746627085435
546,546,5.76360249290624,-0.119164566953506,0.923296951589757,1.49186547562093,0.0704865373631067,0.118379516142929,-0.468839655062371,-0.281325703039813,1.10061463126593
547,547,5.77650695264818,-0.118186580207568,0.924314915596005,1.47721495230028,0.0683946860854218,0.11918143494713,-1.71622165956398,-0.0619467868073347,0.346138852874546
548,548,5.78981376061792,-0.117090211630062,0.925543600633773,1.4531227750922,0.0669587716639591,0.122891649335092,-2.39967210173755,-0.275420086528594,0.253286641169438
549,549,5.80368655139707,-0.115861470422759,0.927067066523021,1.42475896978198,0.0651409441789656,0.127258016670964,-1.448333219595,-0.601363026782261,0.109543605044478
550,550,5.81785886568056,-0.114556546422437,0.928892931551451,1.3846564803875,0.0610878724908099,0.127368835921854,-1.93150890698486,-0.577611497010519,0.00587375580642102
551,551,5.83208025596796,-0.113197512837557,0.930892916358015,1.34240171781003,0.062244623098775,0.128001812462208,-2.81276410606584,-0.476858428563731,-0.171317436429781
552,552,5.84610119003068,-0.111807699825593,0.932932278279412,1.30107837109467,0.0693221562243558,0.13192535362904,-3.27893675553018,-0.236912417528313,-0.0812224332177823
553,553,5.85967294668862,-0.110411336621189,0.934870892743066,1.26164933175008,0.0718167621395915,0.140668470855238,-2.74720361768222,0.467248561302805,1.2450503765163
554,554,5.8726095259796,-0.109032030499765,0.93671739081305,1.23920628795653,0.0716551626244216,0.156920748073738,-2.10580500154689,0.568813617507662,1.81946970905004
555,555,5.88507554371524,-0.107659378126833,0.938563019804261,1.22740496165378,0.0772135619494772,0.177270087752554,-1.60046015220206,-0.0741461104283924,1.72946962051777
556,556,5.89734989494538,-0.106263367338076,0.940388901827002,1.22470908468106,0.0864728258213268,0.196525372023402,-1.53290091098018,-0.516632446219641,1.25137236389125
557,557,5.90971238934526,-0.104809340823008,0.942174224383779,1.225229343194,0.0909991670241054,0.210607929922101,-1.31400459432579,-0.349060081925815,1.0472375689193
558,558,5.92244374237157,-0.103258398159789,0.943894997922042,1.22954945018463,0.0949463348392608,0.216927557634068,-1.18873524281062,-1.58211271373867,0.778727531638053
559,559,5.93577942256432,-0.101567825204926,0.945614796497646,1.23474521008421,0.0988156708327743,0.213126366641805,-1.09618801960391,-1.54450676112987,0.309318271868309
560,560,5.94953594337809,-0.099756430892458,0.947350552392415,1.25031931329639,0.0888405921794314,0.204502813692991,-1.44744416597354,-1.01811388065745,-0.529032622024522
561,561,5.96336595270459,-0.097875372453438,0.949005573563975,1.26354159329317,0.0772806808538048,0.191243392777811,-0.798525528232493,-1.34203247999347,-1.42859031977458
562,562,5.9769218611899,-0.095976782796548,0.950482769690813,1.26850921551022,0.0835531539363922,0.173003442410126,-0.895264358089112,-2.14837120605318,-1.82298978537988
563,563,5.98985610657045,-0.0941138391204099,0.951684279811007,1.26476435385688,0.082217776977996,0.152279601881902,-0.806998785166769,-1.69716639967066,-2.74849188202864
564,564,6.0020857057436,-0.092221061230731,0.952605973509347,1.24117409579904,0.0798763051611077,0.126533738073203,-0.626614281846474,-1.33894024346949,-3.03199630671884
565,565,6.01384553101237,-0.0902564316511768,0.953317198472855,1.20053858356026,0.0711846377663699,0.0966681139089925,-0.34261150210568,-0.682125324776437,-3.1333919190784
566,566,6.02526403277677,-0.0883132460709668,0.953827569245051,1.15414953703889,0.0682569097477938,0.0636278689339427,-0.159778168977878,-0.873749815385489,-3.22563507276102
567,567,6.03646859982518,-0.086490504727572,0.954144039780868,1.11209004096724,0.0730746840234636,0.0297769624723587,0.0682872752591964,-1.15554578753133,-2.87557392075969
568,568,6.04758609071648,-0.0848924133956207,0.954271064297442,1.08541566269057,0.0791838061083875,-0.00060486341201689,0.125230687800483,-1.13384891452356,-2.58784652347019
569,569,6.05841589360029,-0.0835443261600729,0.954210306248086,1.0758749122759,0.0775812279673341,-0.025250054208307,0.233775559130838,-0.902909182489148,-2.45285655928327
570,570,6.06887437727229,-0.0823838680449952,0.953960551629308,1.07721503790138,0.0735125258852862,-0.0468992171665307,0.342390894607238,-0.755604133967946,-2.38551353629634
571,571,6.07926309375534,-0.0813853564336353,0.953518504075335,1.08627269049857,0.0701475937105275,-0.0677670658339307,0.301076480850682,-0.74705727552262,-2.36179862306154
572,572,6.08988251014994,-0.0805213707180059,0.95287784194529,1.09811387805675,0.0686669042324652,-0.0891323006482108,0.0865863550584641,-0.480792999609878,-2.45047672450688
573,573,6.1010323054593,-0.0797630005419652,0.952028891112761,1.10867549976675,0.0650229258240686,-0.112647629100556,0.0723114955046436,0.0273995997282962,-2.58412276720888
574,574,6.11283773142234,-0.0791499879712038,0.950932259539979,1.12250078461154,0.0599516196258704,-0.140240607341286,-0.042833281315326,0.235934829237322,-3.01716814943513
575,575,6.12509748731403,-0.0787030656054312,0.94959177189987,1.1433316137977,0.0557919971892983,-0.170318507101196,0.0947822687275298,0.0706339628044748,-3.17780002127193
576,576,6.1376207400341,-0.0783627670399075,0.948058118435437,1.16975984601754,0.0519036124141309,-0.198558814709879,0.178282538617466,-0.112219509156878,-3.24935678340821
577,577,6.15021677169339,-0.0780683356832678,0.946379333001844,1.19465581087416,0.0531400407395052,-0.222800088299612,0.485877675421061,-0.468796852601435,-2.84038396626505
578,578,6.16269548264175,-0.077758060334769,0.944601056151635,1.21124253039449,0.0586981192020519,-0.240647851489255,0.739591425743739,-0.455720152099328,-2.18525388754963
579,579,6.17499803819313,-0.0774984682471772,0.942646034984815,1.21522167298187,0.0702554599619696,-0.252512147079357,1.12949638541093,-0.346597579860864,-1.59146409022525
580,580,6.18725081413334,-0.0773283740348707,0.940477607927838,1.20717972512677,0.086332570021346,-0.2608230866676,1.71717613660073,-0.145280575160159,-1.01442238478819
581,581,6.19954297415357,-0.077145266095463,0.938199022210722,1.19669944655053,0.0989335001741677,-0.263959861832813,2.44393767650129,0.0674968140183786,-0.506744188672182
582,582,6.21196481422542,-0.0768482187738981,0.935911642966057,1.18965608880977,0.106258510118638,-0.26235552298034,2.84737815121308,0.0734764346117205,-0.1592316204388
583,583,6.22460751667674,-0.0763376135604075,0.933715828254802,1.19366695291912,0.10999987838909,-0.256083008356937,2.54114661553715,-0.0447609223827439,0.189633742935426
584,584,6.237353874393,-0.0755220215833562,0.93151253050926,1.21424917620459,0.113566910771064,-0.243320366436962,1.87479734909136,-0.248680732726362,0.580672365272039
585,585,6.25014572175658,-0.074470422519569,0.929229333168772,1.2464819550408,0.119966517516978,-0.22393825582659,1.06332636145018,-0.189000322414979,1.12580221154958
586,586,6.26316264715013,-0.0733235064990034,0.927007474566011,1.28564263616035,0.128413025740639,-0.200235112115283,0.572052745389559,0.0677440294180885,1.76068550646073
587,587,6.27658353205455,-0.072220703642236,0.924989032924338,1.32687768199917,0.133982944711985,-0.174178079758599,0.69981245278191,0.320291997010518,2.2551389540893
588,588,6.29058667475408,-0.0713002780033865,0.923316609547229,1.3648485008967,0.132393030197219,-0.147872572271532,1.4596810070094,0.526444662441288,2.66908547413726
589,589,6.30543584070934,-0.0706031523474554,0.921927667156735,1.40100253887276,0.124125547083844,-0.121955797734284,2.03766983987545,0.564725698320455,2.97057082411121
590,590,6.32101066643902,-0.0700358951342699,0.920731074152984,1.43814163082069,0.113192876465928,-0.0929733849802576,2.46334937663154,0.568685522936978,2.59626431366805
591,591,6.33691310118892,-0.0695354172947071,0.919825966976023,1.4681159267779,0.105368686926552,-0.0642408442099263,2.97615268711643,0.656524070189538,3.10671976329297
592,592,6.35274580917569,-0.0690397330675666,0.91930981848258,1.49777278314253,0.100046323571876,-0.0328215810614807,3.16475661101681,-0.0362485488694905,2.66071108412254
593,593,6.36811232903174,-0.068487381798316,0.919278342893881,1.51018001060423,0.0939936926777312,-0.0047852563410275,2.12890608534009,-0.382582527749338,3.05764215422337
594,594,6.38291309825797,-0.0678940305814396,0.919886923918814,1.50650049095626,0.086679026294445,0.0240670431748505,2.00404323075717,-1.27022435256082,4.00545764878102
595,595,6.397411414807,-0.0672995120495937,0.921078862122752,1.50235003384194,0.0699814198544855,0.0579051348325176,0.809964475636943,-0.160509817713851,3.5062212340382
596,596,6.41175609823078,-0.0666793539483175,0.922628455255489,1.50091390839887,0.0540773741587765,0.0916120840943325,0.144993801778915,0.669867376629167,2.8455344758056
597,597,6.42609662809144,-0.0660110157100415,0.924306116697578,1.49951733069748,0.0520589460054553,0.120637276103419,-0.61086633422353,0.349394070338289,2.55237662968795
598,598,6.44058278556624,-0.0652743791409885,0.925877534947315,1.49854999536183,0.0549734858024465,0.143696893074399,-1.66826562976107,-0.495160971551927,1.99217030702888
599,599,6.45535489920724,-0.0644282722683739,0.927353321952123,1.49756759869408,0.0571098091578266,0.157945892325291,-2.57577454477231,-0.391141462199904,1.0923334506725
600,600,6.47031314092996,-0.0634909622869189,0.928891864142257,1.48763896091883,0.0564205847496237,0.164558146072827,-2.39153793952494,-0.384300978892186,0.98766598977481
601,601,6.4852468961522,-0.0625291983283515,0.930473877708654,1.46906763731203,0.0582101875834359,0.166660012128304,-2.2478552237036,-0.784734599253383,1.35289201672923
602,602,6.49994514516702,-0.0616044578725878,0.932076403630776,1.45015180350014,0.0577914087152713,0.167085542423687,-2.24682863638283,-0.920446812012159,1.22883084475608
603,603,6.51419612943843,-0.0607739476761923,0.933673886632987,1.43410552481826,0.0515327482249569,0.171135176255607,-2.2390244130393,-0.888170233737602,0.956443287542142
604,604,6.52782130074227,-0.0599848790495297,0.935285947819989,1.42052495784181,0.0397053142627741,0.180001026519911,-2.50717050310247,-1.00752963220038,0.723820716543014
605,605,6.54096008994483,-0.0591928654835727,0.93692838511478,1.40193566431361,0.0240477395473768,0.192148296876965,-2.01248090294281,-0.646637527403747,1.42516319947924
606,606,6.55387850689254,-0.0584686333436766,0.938569213329958,1.38262520328625,0.00608132875005361,0.205272616290439,-1.93369703764764,0.0410533476544849,1.57426262700433
607,607,6.56684354242571,-0.0578865276829556,0.94017579558446,1.36633290249058,-0.00859874519032175,0.214233945804415,-1.73424333476975,0.214495962207904,1.12526631637863
608,608,6.58012260970099,-0.0575236224084975,0.941714145062266,1.35261452581784,-0.0211509342696133,0.216897049670618,-1.72711860459426,0.517245647457021,0.599819805048794
609,609,6.59390411266518,-0.0574264102670157,0.943242131158396,1.34426770545704,-0.0294184170030823,0.213534304424146,-1.57077931804542,0.486128549032942,0.205414718576456
610,610,6.60801132261493,-0.0575507635791815,0.944786099643355,1.33812535125244,-0.0347292909146579,0.205933130702831,-1.34682204113304,0.451458516895158,-0.276302086186036
611,611,6.62216398477526,-0.0578371047312886,0.946262373610127,1.33287945784461,-0.0369175018230884,0.195645441064823,-1.56988271469025,0.349883497238336,-0.927823205544019
612,612,6.63608218112367,-0.0582226635179147,0.947585490424181,1.32002007726078,-0.0397098590167151,0.181390447716509,-1.29086483474775,0.569226519769523,-1.46518976002693
613,613,6.6494868205706,-0.0586413080203791,0.948667978585104,1.30133927167009,-0.0406534638088689,0.162955430743515,-1.24794373893451,0.700364968022138,-2.04507821972856
614,614,6.66239896260848,-0.059164630484333,0.949513058085082,1.27146542424499,-0.0371960266711955,0.138004859875968,-1.11594421588665,0.771458975163009,-2.70752174665547
615,615,6.67500637369281,-0.0598355016548484,0.950181494910583,1.23451384636226,-0.0305295461151679,0.106774427028851,-1.11220409581411,0.870091265202146,-3.10952721080068
616,616,6.68728091356823,-0.0605425794128333,0.950669725553422,1.19314264737811,-0.0209980814024215,0.0722957804392768,-0.842038627757529,0.875413369155274,-3.37238143124782
617,617,6.69919465433942,-0.0611749587177024,0.950972889450792,1.15618800405076,-0.0161873520488982,0.0379203133003915,-0.861003609279268,1.25904069067761,-3.2786255016318
618,618,6.71071998068423,-0.0616221701836561,0.951084760753223,1.12775424471149,-0.012743897892144,0.00691841064212411,-0.579690091233366,1.14155619429598,-3.06485277691568
619,619,6.72159577961633,-0.0618463161809089,0.950985114410596,1.10770336112734,-0.0105125571772065,-0.0205556679716136,-0.285300316516187,0.807868497791697,-2.9524251826594
620,620,6.73184278604946,-0.0619207537631294,0.950680240611162,1.09127764410346,-0.0103199542855691,-0.0467978322412139,-0.0514976341155201,0.51764124091438,-2.84258684287502
621,621,6.74185578587257,-0.0619019423773225,0.950201723728652,1.07817864584959,-0.0126404688571466,-0.0716960521917158,0.217992571767953,0.0573741978126004,-2.64489976300939
622,622,6.75202872881241,-0.0618464598952754,0.94957972150657,1.06982629669252,-0.0180700081274854,-0.0951418704540296,0.390979488333786,-0.248069999330673,-2.45141233639411
623,623,6.76275483745216,-0.0618112313281813,0.948842913163978,1.0683000459078,-0.0252026975490046,-0.117134722632147,0.396231767901015,-0.414288000319689,-2.17069512923153
624,624,6.77411970032143,-0.061788344489289,0.947996911854228,1.07733574932423,-0.0374943251164485,-0.137640517512621,0.225628232015539,-0.357533432700252,-2.09408241723449
625,625,6.78586102638892,-0.0617412494768094,0.947024802289387,1.09537723343702,-0.053326543399659,-0.156352636692375,-0.276573847035103,-0.494883106616024,-2.07541481564137
626,626,6.79784885046189,-0.061682835020682,0.945917756881303,1.11668046277408,-0.0688866594011818,-0.172914222782752,-0.565076579828433,-0.597447718522483,-2.05090153317214
627,627,6.80995232608257,-0.0616238556800569,0.944663079115289,1.1378612023936,-0.0780383043131102,-0.187303038188851,-0.287082554009272,-0.724721771068438,-1.95469848609964
628,628,6.8220403439187,-0.0615726944545982,0.943244288404189,1.15549689537626,-0.0803145519954954,-0.199448809081857,0.222036729302593,-0.616868720743436,-2.03553634184269
629,629,6.83406332328634,-0.0615369614909094,0.941574644945854,1.16743205463703,-0.0794830117907315,-0.21079129912764,1.21756432366912,-0.247273986784034,-1.92267362095977
630,630,6.84610689981826,-0.0615072455849501,0.939661107332637,1.1750485587685,-0.0791443081524376,-0.221911551754742,2.0083156919069,0.328642106858843,-1.53369231090496
631,631,6.85824348944892,-0.0614651896053353,0.937622893466054,1.18228638079779,-0.0799888613464565,-0.231706464413514,2.13717086823064,0.787648617257497,-1.06673133191663
632,632,6.87054628274816,-0.0613934188977624,0.935575987477925,1.19348104182352,-0.0835029961296256,-0.237213586581337,2.00601931098289,0.920116689181718,-0.570001367818972
633,633,6.88308940897538,-0.0612756661670848,0.933633727976728,1.20867266768404,-0.089638085370152,-0.236936406882716,2.10914171816593,0.792960559550688,0.0139035923042944
634,634,6.89579406142785,-0.0610574757758906,0.931745654580333,1.22128906772498,-0.099060250397603,-0.231219839343715,1.98262792052713,0.536758609304581,0.478146777080727
635,635,6.90861256104258,-0.0607485278697239,0.929829356791674,1.23108247506484,-0.107288999440098,-0.220666465274609,2.01582901413866,0.299689396369798,0.874632979954599
636,636,6.92166712789765,-0.0604295078988496,0.927948069373937,1.24655795309311,-0.109374470037864,-0.205131238566548,1.93279996229368,0.175813292416619,1.04260869886612
637,637,6.93508044479666,-0.0601809857737527,0.92616419659529,1.27035339523692,-0.106691646892651,-0.1864036411732,1.6797935334603,0.276332661796655,1.18012861631508
638,638,6.94897499643729,-0.060083410949393,0.924540069532758,1.30110623250016,-0.1046774159299,-0.165485203913748,1.85841169687935,0.468675100597736,1.37139970490268
639,639,6.96359932421348,-0.0601796631741221,0.922945064504278,1.34389832729655,-0.107385119687849,-0.14123062408795,2.34535246142983,0.521859474378866,2.03662274433461
640,640,6.97887239444894,-0.0604151248580116,0.921337248762429,1.39437561103508,-0.11105208048172,-0.112893359597622,2.62033200541824,0.264555960965884,2.36263818166858
641,641,6.99442069278146,-0.0607244436473001,0.919912727908736,1.44414735458009,-0.109607111732305,-0.0828789306709702,2.87666246854138,-0.342801680828037,2.50930705168061
642,642,7.00987050129322,-0.0610425276468796,0.91886665434954,1.48839948699902,-0.106879499017787,-0.0506585832821456,3.17316696196905,-0.652240809240828,2.80761181636341
643,643,7.02484884360731,-0.0613042985360975,0.918392638119727,1.52072533135748,-0.111717480657669,-0.0180234380873303,2.65955808422455,-0.0968427141812036,3.63424866796084
644,644,7.03929621128404,-0.0615068263589649,0.918640418110121,1.53607220615797,-0.121884340765899,0.0188997991674316,1.94735448959722,0.0865076173060728,3.14570535344994
645,645,7.05345908262471,-0.0616917922615983,0.919487764610848,1.53088857096187,-0.135111080812021,0.0575469442430548,0.785912356023799,-0.168270887554061,3.50941144427135
646,646,7.06742547145175,-0.0618623581841315,0.920718257493851,1.51392711384396,-0.135994458940364,0.0959213821973392,0.123323658511158,0.133544069057046,3.22763280430069
647,647,7.08128465305069,-0.0620238447486567,0.922113086374135,1.49221347603586,-0.130022686462107,0.127426767243813,-0.461919726364847,0.229882718295168,3.12378538663407
648,648,7.09512663025838,-0.0621838832844987,0.923450416183957,1.47380379520383,-0.123534143897533,0.147621211881556,-1.14300569549682,-0.0752911207895415,2.82065585844858
649,649,7.10894979982385,-0.0623971727889463,0.924736511179346,1.47982739527047,-0.117868128215685,0.157146416976492,-1.29103006057715,0.498950865274304,1.219759724304
650,650,7.12269537102169,-0.0626613277342871,0.926128128045889,1.48541533242626,-0.104252749521824,0.155085761941615,-2.13760606352701,0.0502145645546982,0.470821624229383
651,651,7.13636742450567,-0.0628999449795569,0.927622046011795,1.48068855427572,-0.0836401765606192,0.145119675417732,-2.32892752544746,-0.381063124103113,0.193221136310159
652,652,7.14996931562593,-0.0630364729997456,0.929208095907717,1.46161101763025,-0.0727544268101872,0.132521939479431,-2.88211820847528,-0.0678707863521044,0.26275517236177
653,653,7.16350332033208,-0.0629944499223465,0.930869708755884,1.43246672877356,-0.0674654847296068,0.126717086595901,-3.26927178563606,-0.0502900492016897,0.297731322410315
654,654,7.17692662672427,-0.0627308899523025,0.932639807603942,1.39443926700791,-0.053025024571196,0.133240574285391,-3.23608394969568,-0.262930089084051,-0.122798103382765
655,655,7.19023462275277,-0.062300848818225,0.934527887528865,1.3457073921606,-0.0358288821796723,0.148375242575654,-2.35104819814736,-0.455304261777976,0.497142303731381
656,656,7.20348729886654,-0.061773261699143,0.936477468818107,1.29137192686656,-0.0309092483937224,0.168932319021464,-1.72441051211654,0.0386912399578387,1.84304201047403
657,657,7.21674645843579,-0.0612141435198926,0.938429972820134,1.24578193812561,-0.0267072789912574,0.188611430894491,-1.40466903375112,-0.290508735603205,2.4013083214524
658,658,7.23007560912088,-0.0606865817562903,0.940324404328921,1.22428178458314,-0.0181832884958816,0.203241066054112,-1.20683328255436,-0.493262644964908,2.0805928796402
659,659,7.2435300258276,-0.0602392717258984,0.942208800483338,1.23368994233036,-0.00927143862687721,0.211795741865274,-1.60918098318822,-0.488165985590842,1.01989395224023
660,660,7.25706880222687,-0.0598281839171018,0.944123911452004,1.26001339968055,-0.000568690649874448,0.218413689526359,-1.65865055010336,-0.770201140709881,0.390160795650492
661,661,7.27061224714771,-0.0593744031888614,0.945995897253736,1.29225442695372,0.0049917296735779,0.222801561754953,-1.40896149673183,-0.963128808558962,-0.13280519671695
662,662,7.28408088050366,-0.0587978697243337,0.947749860333816,1.31694706101195,0.00925981011288527,0.221895009796608,-0.990793145933594,-1.07135627768176,-0.566402665266459
663,663,7.29739589674961,-0.0580175156341598,0.94930939074577,1.32299053183604,0.0145506152148069,0.213277188545776,-0.780755897234537,-1.14976516616938,-1.09250243249366
664,664,7.31070307163233,-0.056938064892084,0.950723660547643,1.30876073366264,0.0268959619925944,0.193749398306357,-0.642200643688811,-1.55511685952162,-1.88183813006726
665,665,7.32405791720428,-0.0556084308009112,0.952045978255048,1.27972258288878,0.0341166956405034,0.165371598510946,-0.609052242306671,-1.17830420686988,-2.52094080944322
666,666,7.33724683271434,-0.0541646644809878,0.953204305352258,1.24906852266614,0.0427973158149434,0.13246162705099,-0.735716881489158,-1.31629725129695,-3.02881826200879
667,667,7.35005597830606,-0.0527445354177717,0.95412540223084,1.22030677259473,0.0552552890744364,0.0989194709299334,-0.790445158205968,-1.44422897963316,-3.78441161577919
668,668,7.36227145949196,-0.0514873762042257,0.954734608147408,1.19214301315443,0.0491106567487301,0.0699668482085358,-0.671579798271912,-0.380718458439033,-3.5882236084046
669,669,7.37362156948724,-0.0503569006372171,0.955014113451429,1.16606145614993,0.0419930287148481,0.0429447285789965,-0.613541652289108,-0.0699969131494566,-3.4551872421783
670,670,7.38425138669077,-0.0492577329203971,0.955016315185744,1.13964944513422,0.0442890949336627,0.0142741633447166,-0.401312036763439,-0.460674371654323,-3.16321456554099
671,671,7.39457182223758,-0.0482447837191704,0.954769341044922,1.11399710966392,0.0463824824321927,-0.0149315882290687,-0.234001177811378,-0.293023836920587,-3.01031315347993
672,672,7.40499341814962,-0.0473766963015355,0.954299740565255,1.09186349863563,0.0478281600327192,-0.0434982312190701,0.335287415528586,-0.129215752050349,-2.6200755417842
673,673,7.41592649307758,-0.0467152313843767,0.953632841285549,1.081238368894,0.0488347097821866,-0.0700250977717844,0.598896932479422,0.144308865890417,-2.27036541614911
674,674,7.4274065042842,-0.0462781987074387,0.952742229884108,1.08642585386467,0.0492767120594963,-0.0936090018296577,0.418881678145413,0.335345252959637,-2.22685975632219
675,675,7.4391615760758,-0.0460290678016843,0.951615271964745,1.10296196033142,0.0492267856792316,-0.11442670760793,0.091953785762906,0.409841806765606,-2.19816286971972
676,676,7.45113929938551,-0.0459488036901847,0.950294314849639,1.12580606558001,0.0464596069635549,-0.132800076467327,-0.283238751297827,0.343443512622998,-2.09030495508873
677,677,7.46328523295859,-0.0460180070281841,0.948816474814512,1.15098769118222,0.0362689971558089,-0.148784670668247,-0.471532758814753,0.421088289895372,-2.09783612635694
678,678,7.47554360786108,-0.0462176472392544,0.947213328585727,1.17291343838242,0.017973652632172,-0.162579756290124,-0.425573997345889,0.384690050844249,-2.02560222363609
679,679,7.48793115743292,-0.0466220185958021,0.945437151145153,1.19080487667847,-0.000585880778116836,-0.175517169961693,-0.162712800299391,-0.0942868601912824,-1.75396110029546
680,680,7.50048222183367,-0.0472451046019658,0.943462770473542,1.20713945168706,-0.0173673248429943,-0.187687275134837,0.306648509524463,-0.46438416067042,-1.49511624632216
681,681,7.51316743944728,-0.0479777343727112,0.941349644753623,1.2214484842765,-0.0307406439864907,-0.198765349703895,0.914394765805828,-0.532243817988713,-1.12629510711082
682,682,7.52595805637066,-0.0487106934394137,0.939154038131987,1.233359886388,-0.0373003495696277,-0.208576912671492,1.46674865104396,-0.38773549528507,-0.680599887940164
683,683,7.538826223791,-0.0493345812515105,0.936929515770658,1.24230167824387,-0.0335717490860669,-0.21717959497722,1.85052738806369,-0.334809960165486,-0.303504784130505
684,684,7.55165919304664,-0.049890581069261,0.934571526378987,1.24889238650298,-0.0153248002542743,-0.224962426001159,2.31013496898923,-0.25879598432349,-0.133841759334355
685,685,7.56447614573883,-0.0504528313699188,0.932037425712332,1.25454338207916,0.0118671514801847,-0.231064049720486,2.47575282767828,-0.192868190412102,-0.241503539474335
686,686,7.57744904594927,-0.0509608026342176,0.9294704954338,1.26499979008226,0.0393646071965259,-0.232634579135643,2.60258573669487,0.0098596253053067,-0.207384271129458
687,687,7.5907510843892,-0.0513535989852186,0.927012203994002,1.28205482214682,0.0586205526385634,-0.228713314697952,2.17482766496803,0.31572933232154,-0.126943808518988
688,688,7.60455610405328,-0.0515698543765007,0.92480332363419,1.30640118687928,0.0627004207305397,-0.218454166906627,1.81904419976004,0.537255224655802,0.123173217667821
689,689,7.61907053056939,-0.0515165319206426,0.922639851120592,1.33781943276028,0.0572268550509279,-0.202173757760027,1.66688339965826,0.40826845527485,0.771207833021943
690,690,7.63418119411954,-0.0512331935811519,0.92042569151334,1.37234244159866,0.0512704346422059,-0.181969015866433,1.98069200074967,0.295278693042215,1.70532880905782
691,691,7.64958116619751,-0.0508574026290081,0.918464330463465,1.40758574335642,0.0428432994363043,-0.159685266234499,2.37342284020775,0.223456539463678,2.25556139296667
692,692,7.66496241108732,-0.0505282738769358,0.917058296219806,1.43823252128692,0.0296294351713719,-0.134373128372618,1.71282164210258,0.345975810946941,2.38493716908527
693,693,7.68001635243555,-0.0503866018110998,0.916508349179228,1.45870044072846,0.0138267540793042,-0.105621150622333,1.91678690533147,0.34970801324343,2.81697951902645
694,694,7.69473781990722,-0.0505431303757348,0.917139649022662,1.4727247066188,0.0022140445437095,-0.0702766059475165,1.93645429736925,0.317504297623619,2.92575079714937
695,695,7.7093293173409,-0.050905879119562,0.91875695718713,1.48137523458133,-0.00786130740580689,-0.0289852151560794,2.44040365497637,-0.0898272049119967,2.90922593615918
696,696,7.72379465151208,-0.0513120307381774,0.92087833521497,1.47222919400803,-0.00781048067198429,0.00996868461681873,2.46774738690132,-0.581825579696058,3.60016102175482
697,697,7.73813928340983,-0.0515979473008188,0.923019550237166,1.463436360672,-0.00891801480055693,0.0479351440255446,1.79879510948502,-0.860621307754534,3.88462156231142
