,Frame,CoM pos x,CoM pos y,CoM pos z,CoM vel x,CoM vel y,CoM vel z,CoM acc x,CoM acc y,CoM acc z
0,0,0.014127987652425,0.0757942140705279,0.953771577220923,-0.0033431756413582,0.00345167307408935,-0.0103757935770278,-0.0940015694925017,-0.0454023868267407,0.0150179608406264
1,1,0.0140971307625331,0.0758043447852241,0.953622809382721,-0.00396218521225147,0.0035993930171717,-0.00912644953632633,-0.0392897536675888,0.015237583794536,0.0935764295294973
2,2,0.0140688716932623,0.0758164721985662,0.953467738620449,-0.00633384259377028,0.00529982562426111,-0.00779832881189985,0.0932060922831148,-0.146292424047221,0.0563183091044668
3,3,0.0140392701427648,0.0758275691776784,0.953315871366752,-0.00975009162496588,0.00661127312802332,-0.00656158894673946,0.304464633586645,-0.0910263721718202,0.0908699496466971
4,4,0.0140043893958146,0.0758346106046428,0.953176707107338,-0.0126682569101184,0.0081877389621555,-0.00565206428195119,0.309881282024546,-0.0672732193081514,0.0606424427375276
5,5,0.0139602961234146,0.0758345732634937,0.9530597388751,-0.0138840408637017,0.00919215327897184,-0.00530188603346717,0.187084814499962,0.0305831833644018,0.00729661891668163
6,6,0.0139044906156051,0.0758257157641566,0.952969048911272,-0.0126335963720412,0.0090012822959705,-0.00582307767005183,0.0208423976883963,0.159604214042773,0.0203863019909499
7,7,0.0138396030871996,0.0758100558064089,0.952898295129863,-0.00945166214061196,0.0086418804844019,-0.00705192737436638,-0.123329368336018,0.0692440525062601,-0.0504468993970181
8,8,0.013769395242586,0.0757902122362143,0.952841331424912,-0.00582708650821863,0.00808703593469292,-0.00852897057775296,-0.203514657551185,0.0232058076005245,-0.0778776612268519
9,9,0.013697626082478,0.0757688065980973,0.952792014365412,-0.00276578213786286,0.0076317378998904,-0.00977553735895739,-0.154422512752547,-0.0469590863606407,-0.096500300525996
10,10,0.0136280519798183,0.0757484629672118,0.952744204181143,-0.0010058372236581,0.00732828764825672,-0.0103042574209472,-0.0629038882278225,-0.125038040420763,-0.0700716807735552
11,11,0.0135592446117443,0.0757219869509603,0.952699126831363,-0.00108703994319748,0.00790542191346082,-0.00990970479457123,0.061589012731989,-0.168185368384969,-0.0270441010079834
12,12,0.0134886971183995,0.0756876381413659,0.952660878890999,-0.00256423092012975,0.00834236328936385,-0.00888690145114096,0.172576751152402,-0.103045311831729,0.0482418628379059
13,13,0.0134185496706349,0.0756562216796442,0.952627626839832,-0.00465177707626921,0.00854862310484788,-0.00758933120016636,0.240192717615617,-0.0141213768877822,0.112038369765522
14,14,0.0133509477410477,0.0756385403830451,0.952597530544503,-0.00632938581183491,0.00839125499734682,-0.00635006462119848,0.196950310245935,0.0923387925483546,0.133558749940619
15,15,0.0132880416328849,0.0756453946641821,0.952568742825243,-0.00669661319534879,0.00852638397118431,-0.00549751363195864,0.116605373521269,0.118348718832104,0.11687975995102
16,16,0.0132221252387037,0.0756859925676218,0.952542107211828,-0.0057537983477422,0.00849629144120433,-0.00507603277963955,0.0656240432575577,0.149313499781794,0.0955716114831902
17,17,0.013151774153639,0.0757531358540895,0.952518851908184,-0.00403592272044778,0.00881148384947195,-0.00486538403828089,-0.0110621662507237,0.0965040049173912,0.0792684949889338
18,18,0.0130885616769637,0.075833011357912,0.952497702880443,-0.00166461405478516,0.00942403401663243,-0.0048108757349549,-0.045756904188028,0.137605832260203,0.0491525188877337
19,19,0.0130440576887522,0.075911803724725,0.952477384466451,0.000442007485569634,0.0103093843533734,-0.00481145224418531,0.00112199720533021,0.0516982234059234,0.0201493187157882
20,20,0.0130298292846609,0.0759756971195753,0.952456618841129,0.0018023217891191,0.0109420547346866,-0.00482201785604479,0.057504296968791,0.0811609139415012,0.0184469730504929
21,21,0.0130538114310373,0.0760197586254803,0.952435547644463,0.00282306810281218,0.010860286030433,-0.00489731018024615,0.0653688147119359,0.0795566668465598,0.0452289886854453
22,22,0.0131082925724463,0.0760531996759065,0.952415022070654,0.00381359529427333,0.00977650720706549,-0.00507419009197763,0.0488129411809955,0.114795013658357,0.0149410167350651
23,23,0.0131813690401244,0.0760834225278423,0.952394827347784,0.00517101417077889,0.00843209343188169,-0.00528599713914501,0.0259114206588253,0.0982547812898915,0.0187196653248746
24,24,0.013261136820401,0.0761178293097921,0.952374748160565,0.00634207212281296,0.00735013075481066,-0.00541303605413882,0.0303412857564601,0.0996824108028827,0.00890625705856443
25,25,0.0133356913632977,0.0761638213575781,0.952354568691309,0.00754111234647131,0.00667969080499893,-0.00536496106431991,0.0765494684117253,0.108829822088353,0.0433562531481807
26,26,0.0134040519596744,0.0762220258862862,0.952333758336092,0.00846698457189153,0.00682790758261202,-0.00502324657775259,0.0553633374176925,0.0753150249096001,0.0454027118287523
27,27,0.0134741541049726,0.0762875177719832,0.9523124631216,0.00918944988708683,0.00697658654754788,-0.00447010565929597,0.0832948612718231,0.0847771644975499,0.0668531000064923
28,28,0.0135474671667996,0.0763593663944863,0.952291481171921,0.0097269272414301,0.00759251596176644,-0.00382599352227954,0.055145188280067,0.0524354194572532,0.0986806650153777
29,29,0.0136254604403875,0.0764366364987224,0.952271608729424,0.0100793370121028,0.00797232481752668,-0.00329083193833845,0.0661861726431151,0.054873299834742,0.101743789774644
30,30,0.0137096031657218,0.0765183872662472,0.952253639835976,0.0105505985058506,0.00825779573664483,-0.00302557596127424,0.00423543310686257,0.0571074914884,0.0897032649624169
31,31,0.013809265570675,0.076602530426276,0.952238206959414,0.0112347999109243,0.00833555451178858,-0.00311961477985174,-0.0640268828317385,0.0751354136552074,0.0599198838354714
32,32,0.0139234666929177,0.0766896910479547,0.952224781786762,0.0116991142131677,0.00815342148093588,-0.0034622017066615,-0.0408502221893715,0.0703439700047806,0.0574335171566389
33,33,0.0140381484771756,0.0767829942805075,0.952212414898696,0.0124106542407341,0.00810187686777647,-0.00391776366014169,-0.10789147185478,0.10323729627902,-0.00464421806563091
34,34,0.014139252214696,0.0768855656631788,0.952200155603306,0.0123440013814191,0.00808702841932826,-0.00434068624847987,-0.0206661156093282,0.11133249825967,0.00186338099970824
35,35,0.014212718484109,0.0770005312305258,0.952187052125702,0.0119089621639095,0.00812914377123368,-0.00460131566930019,-0.0522055005527235,0.116500424384227,-0.0410879078624754
36,36,0.0142507814162353,0.0771306484807442,0.952172721355305,0.0104228447735503,0.00881200883655388,-0.00470782763859413,0.048021933399941,0.0408231000337234,-0.0298295997700918
37,37,0.0142628088782308,0.0772738317252134,0.952157797897586,0.00810729444156042,0.00968045580004803,-0.00474739199529814,0.0674446032983761,0.0747797563332387,-0.0154114081832264
38,38,0.0142604427498365,0.0774259420589177,0.952142856173403,0.00546271639073765,0.010442643917392,-0.00470242125855301,0.0346156276862162,0.0628174029620615,0.0391914021417125
39,39,0.0142553268942348,0.0775828393953752,0.952128470464893,0.00318970513529735,0.0110696889020412,-0.00456561033438669,0.0160720441038852,0.0456334079244645,0.0443859447987595
40,40,0.0142591073185949,0.0777403825945554,0.952115214488704,0.00229148821628232,0.0118793679823319,-0.00435090723411155,-0.0351216761758205,0.0647640222433342,0.0486789782110912
41,41,0.0142665354929279,0.0778972403571119,0.952103142661464,0.00262503869165442,0.0123613170276564,-0.00395418946816144,-0.0359043226517637,0.0425129912205165,-0.210028634548898
42,42,0.014269846432344,0.0780561678404986,0.952091873623729,0.00370809017625211,0.0128013172877778,-0.00337749120565904,-0.0593665735361005,0.0440403881249733,-0.365576722277042
43,43,0.0142769136677681,0.0782191541458589,0.952081326719027,0.00515709437110912,0.0129806128708166,-0.00276152300083617,-0.0449709317740404,0.0391315182236169,-0.294981159353518
44,44,0.014295611491215,0.0783881900516248,0.952071420941984,0.0066326047275422,0.0130488336753748,-0.00222747641353448,-0.0744388433707772,0.0564124071784935,-0.160545905454255
45,45,0.014333815074097,0.0785652678809759,0.952062074765178,0.00770649963595533,0.0133087201471344,-0.00189839531088255,-0.0161691877040464,0.0594371535453867,0.0782710671976178
46,46,0.0143989429627183,0.0787539402066039,0.952054095112527,0.00895839235188296,0.0137926292138804,-0.00188173340262956,0.0167102091485714,0.0572559881267849,0.0548986654919244
47,47,0.0144857476168974,0.0789528730311829,0.952047535938382,0.0101698518757192,0.0148212777097742,-0.00205508538978505,0.0389475884106458,0.0549283806745871,0.0453498630569177
48,48,0.0145831042503568,0.0791567349340204,0.952041185444109,0.0111518555408064,0.0152970313309919,-0.0023049289942856,0.032887538329762,0.0822647877670134,0.0141516286440157
49,49,0.0146798858153512,0.0793602018424727,0.952033832268941,0.0119509306550302,0.0158430418104339,-0.00255382585444318,0.0215595258740751,-0.0164588156619031,0.0051644551586456
50,50,0.0147649631942821,0.0795579565656564,0.952024265813539,0.0118439084866068,0.0155996422283058,-0.002669239069257,0.047688823526036,-0.0145535210522114,0.00815494400373934
51,51,0.0148356934049206,0.0797548143274786,0.952011005531672,0.0109871060378304,0.0142632948130547,-0.00263537192376399,0.0247463752213701,-0.0702174280433275,0.00688142257568607
52,52,0.0148994914345611,0.0799543357248551,0.951994859516007,0.00896497747327816,0.0122880214482556,-0.00249232735774284,-0.0140871199484114,-0.0762221046597883,0.0429567652811317
53,53,0.0149603182669613,0.0801493162287446,0.951978049083632,0.00749634167003426,0.0100997238853874,-0.0022985143117944,-0.120879919480634,-0.141420840117885,0.0303719229163241
54,54,0.0150221400921371,0.080332539468555,0.951962793651872,0.00633873011950981,0.00822003841971509,-0.00215972153420735,-0.14342172160149,-0.232464879228126,0.0380521571634311
55,55,0.0150889273277915,0.0804967789274158,0.951951310482728,0.00601606344164359,0.00776703216918461,-0.00215980764923474,-0.127938724441059,-0.290303898280688,0.0888151881003897
56,56,0.0151694498923385,0.0806339281192992,0.951944791888557,0.00722444627325234,0.00787711449642565,-0.0023012657844832,-0.202191908455751,-0.246814865627922,0.0794773679655615
57,57,0.015261068638465,0.080748789363956,0.951941754004622,0.00966503712861421,0.00814276841801903,-0.002595015596218,-0.195968772016866,-0.196876424039844,0.080088501311504
58,58,0.0153506415082409,0.0808534978455576,0.951940400162425,0.0115739544139075,0.00761181810875271,-0.00286421093781277,-0.128581891204865,-0.081351476137567,0.039693811746144
59,59,0.0154250253949167,0.0809601941705155,0.951938937693262,0.0127978607523489,0.00738302028742721,-0.00307089896023003,-0.0573607559802458,-0.0546512833435697,-0.0321189879093931
60,60,0.0154710767549313,0.0810810236792261,0.951935577826432,0.0123675730602319,0.00747773523333994,-0.00317866004430044,0.0525081482814541,-0.0865795688482579,-0.0467293745756666
61,61,0.0154785681672138,0.0812283416000849,0.951929837741379,0.00982300126971227,0.00747668632976739,-0.00309110099382557,0.0463482066063775,-0.0559922903743543,0.00762910027497707
62,62,0.0154562657333435,0.0813940568176304,0.95192291204295,0.0060730420520995,0.00768568668059619,-0.00286873806142963,0.0255762434664615,-0.045872426590469,0.0149605632589662
63,63,0.0154195143414831,0.0815596461653377,0.951915529754166,0.00178780063423261,0.00797327939532819,-0.00259925363795294,0.0484459646449472,-0.12281445891386,0.0193766516730997
64,64,0.0153836561037256,0.081706582426091,0.951908420743178,-0.00206497395805292,0.00834394021887712,-0.00237056136247704,0.0593153283627002,-0.156964049318925,0.0302364360224095
65,65,0.0153640304315293,0.0818163344468859,0.951902316122907,-0.00367756768062601,0.00793021548132997,-0.00226977602363857,-0.072085409245746,-0.133880215612542,0.0174776521276852
66,66,0.0153672544832353,0.0818772721986968,0.951897574213908,-0.0030488583832244,0.00644912562617308,-0.00236762131117186,-0.162939225443593,-0.0605992783847082,0.0389799448423699
67,67,0.015383097890076,0.0819017485696132,0.951893711204826,-0.0012243036183206,0.00435382002938607,-0.00258962797592268,-0.169453779217082,-0.0224505117078627,0.018234922549396
68,68,0.0154016291557039,0.0819072050599758,0.951890194867171,0.00145982347847,0.00185753026419659,-0.00284700614951483,-0.15439500312902,-0.0350209408858735,-0.00941523645192859
69,69,0.015412919324028,0.0819110829855485,0.951886492178183,0.003414817976752,-0.000145921534657841,-0.00300481867276956,-0.0581523355205096,-0.0668912810377178,0.0224206581393827
70,70,0.0154070419953817,0.0819308226870458,0.951882068933689,0.00401551940894831,-0.00132297397824205,-0.00295703161508978,0.0517548603259705,-0.0996811103837491,0.0284389727482005
71,71,0.0153746539582369,0.081971918923777,0.951875962807286,0.0032923250676664,-0.0017634284882416,-0.00261363679317085,0.105092897492229,-0.100098541111784,0.0250166653412146
72,72,0.0153223766529018,0.082022744340183,0.951868529789611,0.00139237220728546,-0.00142347091601796,-0.00202691278791368,0.179924305817192,-0.110913659378318,0.0495738143270894
73,73,0.0152642309828571,0.0820750545492101,0.951861212868176,-0.000532970164094184,-0.00116563066804406,-0.00133549705470775,0.132926858932216,-0.0794469946980132,0.0793523452118425
74,74,0.0152142352485187,0.0821206043210712,0.951855457572425,-0.00185659910183281,-0.000673210896647271,-0.000689411853997212,0.00971072931943962,-0.103417482416264,0.0803865587282788
75,75,0.0151864051898011,0.0821511486924782,0.951852711729632,-0.00198854815537616,-0.000972796843686527,-0.000211462394401996,-0.0786215923892917,-0.0611933870148225,0.0802439441584818
76,76,0.0151905929621732,0.082163936442123,0.95185363403813,-0.00119515310500597,-0.00168287977370044,2.60326260767903e-05,-0.144843644947279,-0.116611692473224,0.0432651287742226
77,77,0.0152174522212913,0.0821644657748797,0.951857262986266,-8.501682105236e-05,-0.0030323022197507,0.000133372607700527,-0.161831238332802,-0.12508727055518,0.0279426118391642
78,78,0.0152522002202371,0.0821568664905776,0.951862614832088,0.00080553345274408,-0.00448031616159194,0.000147177691641895,-0.145528796656425,-0.175672132192563,0.0316181613418931
79,79,0.0152800551442385,0.0821452655606186,0.951868704400094,0.0010145549887884,-0.00642320694743889,0.000159852902915489,-0.0435201617234768,-0.132011438242459,0.062095303724118
80,80,0.0152862360248269,0.0821337863339117,0.951874545566374,0.000471167947215905,-0.007374099574188,0.00021912825946145,0.00554041690476182,-0.191813918698915,0.0662947744480601
81,81,0.0152562931232934,0.0821240733567813,0.951879965206785,-0.000342840377409886,-0.00812780331000223,0.000344101979375173,0.0493835067687781,-0.17549986094344,0.0944205370736587
82,82,0.0152000809588252,0.0821133747481724,0.951885620143799,-0.000867857147508465,-0.00833333998130217,0.000535934383274441,0.0182786773787729,-0.109325298070953,0.0639356798199949
83,83,0.0151392748659162,0.0820992181540161,0.951891765853293,-0.00117396365561011,-0.00837815683846628,0.000748151145544079,-0.0172881792116482,-0.105788903383501,0.0632810334585422
84,84,0.0150955491784092,0.0820791330983563,0.951898655788683,-0.000531940631382785,-0.00859722330008261,0.000949265349220115,-0.0750131771548311,-0.0253595140144596,0.00910312844936985
85,85,0.0150905774715199,0.0820506515061076,0.951906540729001,0.000547184477802989,-0.00902509707266503,0.00112019135860441,-0.0574362307914253,-0.0707942376724192,0.0555378746684163
86,86,0.0151290236272065,0.0820131095131976,0.951915257205607,0.00256712248084835,-0.00965122337011875,0.00124239097830282,-0.0397512545554652,-0.0461824032577499,0.0466146998392074
87,87,0.0151964373807174,0.0819681560702813,0.951924628266734,0.00505370283436709,-0.0103110636499555,0.00130377401057021,0.00710042388233137,-0.0622215033024789,0.0404591611539291
88,88,0.0152858211107818,0.081916796106427,0.951934880132111,0.00756430608269903,-0.010746175379016,0.00135216108046172,0.0145123972542318,-0.100516144803399,0.0786574879244208
89,89,0.015390177566504,0.0818600361220845,0.951946239193996,0.0100770854916912,-0.0108210278300463,0.0014135894604687,-0.033819037648253,-0.0251525518687199,0.0913486677750295
90,90,0.0155025097873482,0.0817988835904642,0.95195893355145,0.0120810112107499,-0.0110346280914929,0.00151858034600509,-0.0224032957914866,-0.0490937113837236,0.079266231034493
91,91,0.0156295201738393,0.0817299499846691,0.951974200547468,0.0132246549333482,-0.0112914224352105,0.00173245419270194,-0.101687590293475,0.0141179167661286,0.109653409664554
92,92,0.015775873655238,0.0816525754844371,0.95199187722498,0.0135634693304581,-0.0117375291503776,0.00203737624578737,-0.0877231662597471,-0.0209041593118067,0.112521686843817
93,93,0.0159315177110195,0.0815718567803214,0.952010098365202,0.0134494366271769,-0.0121315184678009,0.00232791077900827,-0.1182759568325,0.00384181411778239,0.107387451122935
94,94,0.0160864003679777,0.0814928836312409,0.952027005543426,0.0130863501701014,-0.0120745575617313,0.00248862007690664,-0.051065343721896,0.0049709775267291,0.0515142174546341
95,95,0.0162304698326089,0.0814207375897216,0.952040747207101,0.0125560501710484,-0.0115525746051703,0.0024222410431746,0.038218801299045,0.0181016683001185,0.00676471450367656
96,96,0.016370036139819,0.0813495725632607,0.952051882593555,0.0122597467912893,-0.0105279400343828,0.00202185270549052,0.0865016475301844,0.0709836657655118,0.00175709825001594
97,97,0.0165118018133802,0.0812759883525065,0.952061659552223,0.0125530794163358,-0.00915694016767084,0.00136307480753329,0.0376412692829968,0.0993553166847241,-0.028167945331544
98,98,0.0166463026091448,0.0812087304202646,0.95206926394359,0.012780139038835,-0.00762867679027271,0.000592498627009646,0.0227738113229364,0.158357520201628,-0.0135938367717266
99,99,0.0167640734012083,0.0811565489356942,0.952073879171288,0.0127500476005927,-0.00590244723384303,-0.000110357866964763,-0.00217744453744247,0.153194110647765,-0.0623213676605274
100,100,0.0168556486487634,0.0811282005446921,0.952074684670988,0.0115634023658094,-0.00451437157194949,-0.00058475284686163,0.0122329996549739,0.132667903880339,-0.00512734037704539
101,101,0.0169189868260496,0.0811275120283401,0.952072763246689,0.00986748818383613,-0.00295223508737421,-0.000829621391331921,-0.0338042454889023,0.15106289524506,-0.0187900655500269
102,102,0.0169603966694837,0.0811486415496776,0.952068673554044,0.00745403437050136,-0.00136556625574986,-0.000946795068584675,-0.0249933807433067,0.125175228637138,0.00369736603862888
103,103,0.0169829387928238,0.0811858491593346,0.952060800516658,0.00477741160866006,0.000108529192982559,-0.00097393049843989,0.00616612615127322,0.0849618791378982,-0.0150970504606762
104,104,0.0169896746826614,0.0812333960244441,0.952047522569663,0.00216772093190495,0.00123879708043486,-0.000921201365149105,0.0143289202667607,0.119724223795491,-0.0129043823137696
105,105,0.0169836663911106,0.0812855441072716,0.952027212341341,0.000354041111479672,0.00222699637981019,-0.00087433706760415,0.0384015485670873,0.100443418244713,0.01148958376505
106,106,0.0169611067524437,0.0813475021898712,0.951995038528104,-0.000928186565306671,0.00286723022786135,-0.000739833789618274,0.0472775753782,0.118340359499698,-0.0314644017938366
107,107,0.0169199555242185,0.0814230955044666,0.951952080915772,-0.00186782825876505,0.0036030658007596,-0.00053092029664012,0.0399787105249719,0.0970193902366677,0.0337415427808606
108,108,0.0168659248184349,0.081504512943224,0.951905574905138,-0.00238208931271341,0.00377244464617731,-0.000303183248896424,0.0364479918876276,0.110712862909483,0.00660248562181439
109,109,0.0168047260957215,0.0815839450415376,0.951862755591806,-0.00309197584731728,0.00397730283758547,-0.000108629803750854,0.0467108243500838,0.10677943399859,0.0268937303489348
110,110,0.0167420704753428,0.0816535833068372,0.95183085800726,-0.00354736736141776,0.00420052801784653,-1.80544266563922e-05,0.0591841992867617,0.0222260754631383,0.0202389866225579
111,111,0.0166757732392861,0.0817094441859708,0.951811900479416,-0.00405986805585588,0.00396110078415775,-3.12041670178444e-05,0.058916723320346,0.0288593240479891,-0.00428922361369471
112,112,0.0166020270671581,0.0817567358494693,0.951801055620475,-0.00430795912122224,0.00358534095349288,-0.00012480081237782,0.0597504904299061,-0.0481872743909695,-0.0160217157541866
113,113,0.0165241090000838,0.0818014371838521,0.951795290878245,-0.00455048711719694,0.00289036717963908,-0.000247340169826134,0.0467431177706942,-0.0695122662335077,-0.0110744777450065
114,114,0.0164452954946277,0.0818495273156089,0.951791574339398,-0.00486664768678291,0.00225155555922428,-0.000405954328384514,0.124794830655754,-0.0676798905452497,-0.0212540429761412
115,115,0.0163688623617328,0.0819069863427413,0.951786874396392,-0.00488800608345101,0.00158461526124448,-0.000590734980200633,0.0580988398235724,-0.0670591025998405,-0.0137984918023718
116,116,0.016294928700588,0.0819769910713049,0.951781704230013,-0.00471892623156202,0.00182169130649722,-0.00085810027428223,0.0351143758465745,-0.0781131493166837,-0.0261035694923396
117,117,0.0162213106608181,0.0820555566203624,0.951778084207661,-0.00439483031935387,0.00251633030951394,-0.00120228248270124,0.0580542455005087,-0.0698241333081444,-0.038059710150306
118,118,0.0161478293175716,0.0821379214855522,0.951775243658984,-0.00416793295604358,0.00305749806424625,-0.00154528892970182,0.0780973125513545,-0.0373103810972195,-0.0560797411710224
119,119,0.0160743054137969,0.0822193243291283,0.95177241184905,-0.00401915657842969,0.00363032294502185,-0.00182212818544663,0.127633295885569,0.00191996780239275,-0.0189905662251853
120,120,0.0160005591504865,0.0822950040259335,0.951768817942226,-0.00363975829467673,0.00380754683662257,-0.00191183475499466,0.11155141208686,-0.0443168740039588,-0.0309011494185212
121,121,0.0159222736412725,0.0823681585237345,0.951764219404174,-0.00343597367371856,0.00336997727905855,-0.001771343327659,0.138484528558357,0.0304979199685847,-0.000826121816180118
122,122,0.0158395681072339,0.0824419671949139,0.951759129015863,-0.00342742886874078,0.00283660351390202,-0.00143985062585603,0.104343019492988,-0.00512941885782857,0.0150278145246253
123,123,0.0157589165272014,0.0825116388275805,0.951753909702346,-0.00308378586046358,0.00203782580851201,-0.00102202635016138,0.0722217462393491,0.0137712746492938,0.0217691237082641
124,124,0.0156867930242082,0.0825723785027592,0.951748925555268,-0.00272545608994336,0.00159193308160175,-0.000608460619675019,0.0578435453977411,-0.0144728215972939,0.0327700664027304
125,125,0.0156296719632065,0.0826193874180235,0.951744541909719,-0.00219200906987023,0.00115912541713196,-0.000281029872255742,0.0373062216064023,-0.00600805746927905,0.0591664305969046
126,126,0.0155933627677169,0.0826458682322265,0.951740936477126,-0.00156822131898487,0.000736896037700089,-5.60399389051172e-05,0.00989621457179623,-0.0228915814370659,0.0274958109642407
127,127,0.0155735481889813,0.0826550167423959,0.951737869389987,-0.000738558930016275,0.000406116827857741,0.000113551087875777,0.0038239009679927,0.0191332822715587,0.010692065762389
128,128,0.0155615136799961,0.0826570216699332,0.951735079062731,-8.41167885645754e-05,-0.000212632343789256,0.000270037390260345,0.0362176923930112,-0.0209827249683468,0.0271953638051143
129,129,0.0155485460058603,0.0826620725570705,0.951732301514545,0.000406143769382851,-0.000709318328351163,0.000438366034472631,0.0406833907143924,0.0253488061751648,0.0217277012021249
130,130,0.0155259330324721,0.0826803599067199,0.951729270335409,0.000621466653545144,-0.000504212647415882,0.000638963419594164,0.0340472434644983,-0.0412342953963542,0.0471590473006879
131,131,0.0154874346554392,0.0827138024490844,0.951725664920545,0.000581815159086444,-0.00057117785466476,0.000906616761493092,0.0295636605888277,-0.000705605960524342,0.0453065942910926
132,132,0.0154388610631995,0.0827556068388365,0.951721660512781,0.000287082004023214,0.000112009576983866,0.00123412286077083,0.0170855079509958,-0.025006228185773,0.0613240199208377
133,133,0.0153895748850754,0.0828028953197409,0.951717734067316,0.00025520508146637,0.000602530318536718,0.00156545423098111,0.00816794340497849,0.00530428548464584,0.047697891970279
134,134,0.0153489373558535,0.0828527884676386,0.95171436422583,0.000384685579870964,0.00105032551038817,0.0018474251903102,-0.0553233504480594,0.01671531917312,0.0499538782092694
135,135,0.0153263086570185,0.0829024051037263,0.95171203102417,0.000734251094822515,0.00108570414839456,0.0020363945048485,-0.0169552081089493,0.0201678630584972,0.0487236528571467
136,136,0.0153304150186534,0.0829518599616615,0.951711027439777,0.00133153559705639,0.00091349982738209,0.0020833187351173,-0.0470824074061695,0.0362173085711345,0.0627192742122338
137,137,0.0153550148044994,0.0830030701728652,0.951711034887605,0.00192822247577675,0.000943581835888285,0.00205383107130402,-0.0425852475671622,-0.000459805258913824,0.0289213098459328
138,138,0.0153870162687918,0.0830558585234077,0.951711616197617,0.00246765526098706,0.000457688713142301,0.00196388508268051,-0.018511279584043,-0.00179775949378594,0.0224388603755789
139,139,0.0154133279786856,0.0831100497731375,0.951712334126844,0.00269466496338518,0.000388272862768519,0.00183891121417864,0.0355975082604969,-0.0338969234617615,0.0033656225105104
140,140,0.0154208587050759,0.0831654704347532,0.951712751473638,0.00258091798120055,0.000287228027121341,0.00173085060517704,0.0124143966835538,-0.044085325206824,0.0224116031840637
141,141,0.0154025344063161,0.0832222833114892,0.951712986667444,0.00196720920585215,0.000410679580709271,0.00167600774686198,0.0171790074909206,-0.0472886149537332,0.0157570240671172
142,142,0.0153670825257093,0.0832806056314064,0.951713330692738,0.00140829698188338,0.000760359953974237,0.00161494693915091,-0.0430584659758427,-0.0165822900784988,0.0257439000519761
143,143,0.0153251142848419,0.0833401958484063,0.951713605005974,0.000703256905457715,0.00102749308028356,0.00156000310285252,-0.0483924454771841,-0.0414362441929081,0.037889682963963
144,144,0.0152872409190723,0.0834008115721476,0.951713631529101,0.000160837886547349,0.00139513766992166,0.00146391455312261,-0.0392181857075494,0.000153167006617969,0.00702484872915119
145,145,0.0152640736641885,0.0834622097951083,0.951713232710096,-0.000209906762532632,0.0018775593141667,0.00131352412685268,0.00597405255606887,-0.0289201276781004,0.000428203415096519
146,146,0.0152617319146639,0.0835257057028728,0.951712278227609,-0.000217732757012136,0.00201583817696501,0.0010188530258224,0.00632675471563466,0.0244019848310018,-0.00241673784374649
147,147,0.0152731418764013,0.0835914606589285,0.951710886576241,0.000413092550993822,0.00263483633263124,0.000586790180721265,-0.0388577278502174,-0.0091813471297531,-0.0441063806477903
148,148,0.0152891250572564,0.083657500902042,0.951709253547772,0.000835012482805439,0.00303426110439795,0.000138068871704083,-0.017454970496631,0.0421185184461947,-0.0324303669616238
149,149,0.0153005028718595,0.083721852813255,0.951707574872046,0.00125997456823955,0.00357311528339979,-0.000248062229447626,-0.0296902342319031,0.0123813960956279,-0.00590014915190519
150,150,0.0152980965935668,0.0837825427709526,0.951706046228537,0.0014344320456263,0.00390533254580788,-0.000420907373204733,0.0059366881371896,0.0183345045181048,0.0110613443848874
151,151,0.0152769847655953,0.0838365944741809,0.951704443584969,0.00109006917970365,0.00380234791460249,-0.000303837434362821,-0.0213934680885155,0.0272875256335226,0.0381590785982677
152,152,0.0152432868567721,0.0838853238355719,0.951702635827718,0.00089327874010288,0.0037052639332729,-5.70333019907098e-07,-0.0169644628336237,-0.00876171253594137,0.0418939648978012
153,153,0.0152043852060974,0.0839331953736614,0.951700958363235,0.000522097043870874,0.00340801293892092,0.000417894445485856,-0.0316759758961072,-0.0181667532769687,0.0496405196899389
154,154,0.0151676619546549,0.08398467341435,0.951699747321179,0.000431898330607135,0.00297403511280818,0.000832926277401322,-0.0415830212645719,0.00334094661809187,0.0289281010487976
155,155,0.0151404990171017,0.0840442221908127,0.951699339506165,0.000517534702138189,0.00288312969017809,0.00112353496665316,-0.0379026959870858,-0.0185565729131326,0.0527578086902323
156,156,0.0151243554163855,0.0841155242997065,0.951699947930169,0.00082995438188668,0.0028814179503003,0.0013170905840018,-0.0384740190049581,-0.000877034662718776,0.0331209736419355
157,157,0.015114308928415,0.0841956033482786,0.951701349241258,0.00120008197879481,0.00283186456564282,0.00146575930404475,-0.054281160822358,0.0103634592395215,0.0352698730705148
158,158,0.0151081699341772,0.0842789352987227,0.951703225418382,0.00165477673247568,0.00316753914183291,0.00156486166371895,-0.0470405328113589,-0.0109830629241004,0.0303428228018948
159,159,0.0151037497446144,0.0843599963572181,0.951705257565228,0.00180574234032022,0.00359428575156234,0.00161588716970172,0.0112867449597362,-0.0422493038172969,0.0280077821968389
160,160,0.0150988605413226,0.0844332628954892,0.951707126094133,0.00210962304141438,0.00414201530687356,0.00158057802088685,-0.0111232479444767,0.0206593606159918,0.0292016435620248
161,161,0.0150944612705547,0.084496763312829,0.951709130451034,0.00195537221101168,0.00465678322621293,0.0014437655508042,0.044244898497274,-0.0339440383251879,0.0457485039975606
162,162,0.0150920112901513,0.0845541807255043,0.951711482905643,0.00236434505494877,0.00488098089795088,0.00120212368818447,-0.00578894598743956,-0.0136144256883147,-0.0023759391497604
163,163,0.0150900736992011,0.084608473334147,0.951713733092779,0.00284559011049981,0.00452255718204244,0.000919553059960159,-0.0129503764229591,0.0374399375611168,-0.0201594202531758
164,164,0.0150872115258504,0.0846625988965672,0.951715430794457,0.00308501719920311,0.00433739221609751,0.000657475972094641,0.0154676410994935,0.0192954506998356,-0.0244691004293781
165,165,0.0150819878354359,0.0847195147412937,0.951716125807019,0.00317834157111595,0.00393458495681219,0.00048271724839609,0.00998412202362366,0.017436280010863,-0.0169499722044586
166,166,0.0150732968206661,0.0847820480955381,0.951715619373291,0.00315552140577909,0.00361798989608875,0.000398028308831247,0.0614738441683029,0.0131768635212712,-0.0180132096141808
167,167,0.0150620967276054,0.0848482270528474,0.951714211807305,0.00304242305746426,0.00355292442728581,0.000365282171340937,0.0430589555229215,-0.0374208649109635,-0.00430130472173487
168,168,0.0150500466543928,0.0849138099176325,0.951712201353111,0.00258395949478527,0.00301767678604855,0.000382303908566311,0.0772538120454058,-0.0150729512446592,0.0256297168279835
169,169,0.0150388055783605,0.0849745549100111,0.951709885982408,0.00207099954846175,0.00296916220882828,0.000409135215407612,0.0801378760282933,-0.0237998494074657,0.0020314864943478
170,170,0.0150300323270086,0.0850262201875322,0.951707563455897,0.00190935552010073,0.00270223845066269,0.000414674737546955,0.0554613939087426,-0.0283547955967417,0.00892958644312233
171,171,0.0150229008795418,0.0850659824746736,0.951705071338719,0.00192440435920017,0.00198295705541593,0.000414738529236247,0.0194611375160729,-0.00379565457963016,-0.0145520602480078
172,172,0.0150163051766229,0.0850966690672583,0.951702210720637,0.0018951905169333,0.00164541751338907,0.000413238535019662,0.0495831436937341,-0.0484561806209073,0.0289500429769573
173,173,0.0150114839528863,0.085122514224946,0.951699224766002,0.00203361666280825,0.00102005015874148,0.000420870245713185,-0.00561517041062952,-0.0398438769533487,0.00291069866847038
174,174,0.0150096761193899,0.0851477525355757,0.951696356855052,0.00225944192555239,0.000286071108752045,0.000438251331231709,0.0237535439233332,-0.0450123886177059,-0.000710333058969108
175,175,0.015012120782545,0.085176618848378,0.951693850539938,0.00269540409447614,-0.000171157202891232,0.000469601842179326,0.0161621066122066,-0.0720874533285179,0.0249870999231675
176,176,0.0150191729939909,0.0852108873286827,0.951691641013465,0.00324410857055095,-0.000653931292322526,0.000535487830356805,0.0553000826794158,-0.0657854780932517,0.0162378328916858
177,177,0.0150300069356358,0.0852477348067042,0.951689566381226,0.00412133947940051,-0.000944956127023703,0.000624583281920561,0.0435052924740616,-0.0766844475400249,0.0233488962898036
178,178,0.015044090388138,0.0852845003621585,0.951687724430977,0.00492682305980852,-0.0011611918527905,0.000732045963670948,0.0108983879983719,-0.0521393595788315,0.0439046232104093
179,179,0.0150608909122459,0.0853185232592154,0.95168621258808,0.00564908338282035,-0.00112824964294332,0.000821573525939793,0.0443791741602842,-0.0808370856464619,0.0114278747578036
180,180,0.0150798758811698,0.0853471429613079,0.951685127943744,0.00625738959031314,-0.00123948104130201,0.000883624947153834,-0.000879909122632011,-0.0743977920814106,0.0150207214063917
181,181,0.0151013733140111,0.0853699273981945,0.95168464600713,0.00646231829095327,-0.00132148154809195,0.000898137919233452,0.0145442337410095,-0.0537343425024213,0.00909466203682861
182,182,0.0151257381113829,0.0853886505735119,0.95168470176209,0.00621099172814566,-0.00147272502796802,0.000906047251978589,0.0128869371933656,-0.0457306843191353,0.0142204233561831
183,183,0.01515247788393,0.0854039611200277,0.951685031422028,0.00587894983940094,-0.0017140074292354,0.000907134624832682,-0.0134920962145954,-0.0404528370632622,0.0104318535169374
184,184,0.01518110023963,0.08541650758527,0.951685371241489,0.00554372003907736,-0.00175923324572522,0.000898979506087287,0.0437248873783081,-0.0139607237826707,0.023996965492665
185,185,0.0152111127878945,0.0854269384895181,0.951685457499284,0.00548589003790906,-0.00220062576412422,0.000907498466592582,-0.0100989091623059,-0.00651804679227026,0.0114157777615987
186,186,0.0152414522395938,0.085435373216953,0.95168521862859,0.00550435463344811,-0.00240473064042154,0.000906974627154182,0.0504088001800855,-0.0147396391446478,0.0249506656323717
187,187,0.0152724468820008,0.0854413796357268,0.951684830494386,0.00591603411745498,-0.00245852108897757,0.000902093170975636,0.0213705147879254,-0.0398864598205601,0.000826357854846339
188,188,0.0153056917027786,0.0854447790190447,0.951684400575621,0.00597540223950536,-0.00289715333804978,0.000907969898954479,0.0683814208648892,-0.0117978081317337,0.0205291283895876
189,189,0.0153427816473701,0.0854453925776499,0.951684036336706,0.00621257998602574,-0.00293231020567232,0.000912081034411772,0.0635020005166069,-0.0286958163968719,-0.00075981362336711
190,190,0.0153853116067477,0.0854430414222992,0.951683845215802,0.00665335444896711,-0.00310086744401413,0.000901199296852825,0.0106163687860498,-0.0428789451510402,0.0164418024181871
191,191,0.0154342139764094,0.0854354398663478,0.951684020363312,0.00696926302186749,-0.00338230620455105,0.000893555197459687,0.0295233428641576,-0.0048433985370956,0.00970258605171834
192,192,0.0154884256389368,0.0854227072497012,0.951684490201597,0.00762900392064193,-0.00375209763499588,0.000877111747406029,-0.00941105660051686,0.0125660683963128,0.00720917700910881
193,193,0.0155465481550298,0.0854082722046772,0.951684965105838,0.00773338229925583,-0.00369216324932421,0.000869887511691343,0.0307954096752897,-0.00740706573462332,0.0276375414688509
194,194,0.0156071829910532,0.0853955635081706,0.951685155531088,0.00811213511696692,-0.00386556349237732,0.000829405930374606,0.00366837302212983,0.00143025924889938,-0.010045115742944
195,195,0.0156689315010601,0.0853880101060505,0.951684772022797,0.00818018597650227,-0.00404253863380124,0.000767857405720666,0.040485588091649,0.00577890553728638,0.0138079238037093
196,196,0.0157344785217685,0.0853873072346667,0.951683804100756,0.00856347933711264,-0.00378104221846526,0.00065863517758433,0.0526674182004489,0.0145667483802476,-0.0192310533954817
197,197,0.0158047564742128,0.0853911694749663,0.951682445212436,0.00899115624892988,-0.00337586215572811,0.000506871027017288,0.0448212754403115,0.0168220024790101,-0.0229246327464161
198,198,0.0158757380057421,0.0853970548114481,0.951680711648919,0.00927292935567559,-0.00306990635308893,0.000336592716959693,0.0740939847571049,0.00261705080102136,0.00556009654033764
199,199,0.0159433957575781,0.0854024211002006,0.951678619331697,0.00945963641029529,-0.00285533481277034,0.000175191186185453,0.0597217674662038,0.0642187800407996,-0.00284241492357888
200,200,0.0160037023449462,0.085404726018189,0.951676183795832,0.00922359258769216,-0.00235181872603923,5.92542252396423e-05,0.0292547307019662,-0.0223587928961955,-0.000971926527195514
201,201,0.016056663457583,0.0854018547028936,0.951673320385368,0.0089712583847194,-0.00255057280690509,-3.74092165317686e-05,0.0106582386496664,0.0554678407983361,-0.0192870067481248
202,202,0.0161049639126249,0.0853955021302975,0.951670018405612,0.00834070916219238,-0.00270476285951153,-9.77648140176302e-05,0.010037830275978,0.0260461302429634,-0.0252372641553777
203,203,0.0161485949429955,0.0853888404977667,0.951666404033442,0.00773265063926928,-0.00256326234773126,-0.000178249518426986,0.0170159985058295,0.00857921838973693,-0.0134619194541736
204,204,0.0161875477703568,0.0853850420387631,0.951662603374463,0.00686193265745411,-0.0025371758470944,-0.000198461931706736,-0.00872446595781163,0.0272936349198415,0.0185935310705745
205,205,0.0162218136340696,0.0853872790644608,0.951658742489871,0.00622508637939535,-0.00251117002809743,-0.000178522181823952,0.02148806768266,0.000375504752040285,0.00402569139128888
206,206,0.0162487952896918,0.085395181551792,0.951654702410739,0.00589549062523991,-0.00242449801282758,-0.000115690452327004,0.0128404942835332,0.030963883971794,-0.007774359587513
207,207,0.0162684984643223,0.0854066348190167,0.951650398548749,0.0057410487969843,-0.00217980123688461,-1.93926477180798e-06,0.0131422965232265,0.0194614964174172,0.00858638036005586
208,208,0.016284818833216,0.0854221940603935,0.951646008765056,0.00563524557149728,-0.00189855316624703,0.000144100951279423,0.033205432583351,0.0069140880951471,-0.0019278995937474
209,209,0.0163016519877834,0.0854424141808754,0.951641711238305,0.00549536315945119,-0.0012724694894294,0.000289844870662011,0.0181438576993119,-0.0150412582814757,0.00862284162385036
210,210,0.0163228934170122,0.0854678498055601,0.951637684470162,0.00527557142288626,-0.00109354390159053,0.000437858812012901,0.000246142408687275,0.0271591529583576,0.0447748293667156
211,211,0.0163468974557338,0.0855013848601528,0.951633810620018,0.00556091081831559,-0.000825336627830864,0.000564895216703991,-0.0414240536188656,0.0441678716592909,-0.0158205049907006
212,212,0.0163710665301473,0.0855426492047831,0.951629971229172,0.00526716157626641,-8.04146347339379e-05,0.000710436868376437,-0.00466320956716695,-0.00184705751408202,0.0329273252372551
213,213,0.0163978685360022,0.08558731622509,0.951626344010421,0.00498441650037407,0.00063979016183324,0.000850217088907147,0.00191035097417167,0.0023507757407073,0.0324049577360332
214,214,0.0164297719255739,0.0856310593278591,0.951623106402042,0.00478731148162289,0.00114783831871919,0.000980791508749825,0.0028520416797675,0.00559760365225278,0.0352773495281642
215,215,0.0164692456488049,0.0856695518846107,0.951620435528728,0.00498607464133346,0.00144432344567633,0.00107463122391054,-0.0381073958864826,0.0195214335096099,0.019800882306018
216,216,0.0165185079432322,0.0857011685903322,0.951618450451742,0.00547772196954399,0.00167824844729706,0.00114896465206363,-0.0206874678734535,-0.0244256286018223,0.0404399810006578
217,217,0.0165759133444127,0.0857287933194595,0.951617033108416,0.00630142355065324,0.00156542158087497,0.00120766284631818,-0.0256826263042864,-0.0159978988325441,0.0142483988910195
218,218,0.0166381353587229,0.0857548632042927,0.951616004740643,0.00735575990183557,0.00151547276956727,0.00123756347411786,-0.0240214324334034,-0.0204843328248851,0.0217179049464771
219,219,0.0167018474217471,0.0857818155813534,0.951615186542063,0.00806022030076609,0.000985889922742728,0.00125794481001561,-0.0115854649154981,0.0304081248285331,0.0156168205778105
220,220,0.0167637229706923,0.0858120880389141,0.951614399664095,0.00868491687851819,0.000779585216629985,0.00123653736547598,-0.0254515747656048,0.00573066630998456,0.0178969708288632
221,221,0.0168261831675767,0.0858460099464973,0.951613777739945,0.0087393467496216,0.000663565772276975,0.0011601716271185,0.00158219578013678,0.00468991999515375,0.000169123452390091
222,222,0.0168914458510122,0.0858819560296607,0.951613439885161,0.00836869403097509,0.00056423710851544,0.00105528659302029,0.00117888730598074,-0.0140262068661499,0.00599915916708028
223,223,0.0169558794153951,0.0859194322099388,0.951613185493824,0.00792453848973743,0.000685701328823376,0.000921294317241351,-0.000731623074638676,0.0153072701436449,0.0191091107989165
224,224,0.0170158521509868,0.0859579445434811,0.951612814015644,0.00755100298484986,0.000393670120397911,0.000810108938148023,-0.0545833769231785,0.0520667281178587,-0.00840562965338291
225,225,0.0170677322419364,0.0859969992014887,0.95161212495552,0.00701557358563064,0.00080576202971543,0.000748742719842558,-0.0167778150270256,-0.0375400318989077,-0.00400007270428007
226,226,0.0171112301272801,0.0860362327042839,0.951610982129514,0.00660624039152344,0.000662219004440924,0.00073794464208483,-0.0135376241665362,-0.011212812956043,0.00894267406645783
227,227,0.0171487669241704,0.0860759744238466,0.951609519235983,0.00613862569020392,0.000878515255057651,0.000764643576240287,-0.0151343194070949,0.00122692058298142,-0.00614197835126937
228,228,0.0171807767780245,0.086116769869776,0.951607940562572,0.00598919415365649,0.000984132145496268,0.000797836623093032,-0.0112929371009527,0.0147670236575993,0.0142603875118744
229,229,0.0172076938430507,0.0861591645057261,0.951606450329257,0.00542737184069008,0.00117604952787602,0.000866420782973337,0.00601710463051297,-0.0271426914470744,0.0126280935284886
230,230,0.0172299522724224,0.0862037037215892,0.951605252732702,0.00499770485188128,0.00118935363178146,0.000941023325089265,-0.0162244689568784,0.0247822329900987,0.0194297375229018
231,231,0.0172451111428374,0.0862520368373071,0.9516042973602,0.00487006226336039,0.00143156990009066,0.00102270027583541,-0.0531670337600431,-0.0166069816224035,0.00205722844734041
232,232,0.0172528808750478,0.0863038000476757,0.951603448150191,0.0045624119870544,0.001759429029426,0.00112281500588201,-0.00550180475933017,-0.00763873162120052,0.0166248177146359
233,233,0.0172569227239824,0.0863565190713986,0.951602780795621,0.00397168668568245,0.0018561413669318,0.00124016386939726,-9.45953669159546e-05,-0.0269452554527833,0.0153428322088525
234,234,0.017260898088923,0.0864077198650758,0.951602370827699,0.00370733308402226,0.00215581085119455,0.00136798868939632,-0.015142132561944,7.91697071227937e-05,0.00737113338908008
235,235,0.0172684685059613,0.0864549286372476,0.951602293588055,0.00357622517266556,0.00223104702185516,0.00147180556892132,0.0168652828762637,-0.0405569298485745,0.0381682190920912
236,236,0.0172791737931835,0.0864975338228006,0.951602506591748,0.00359196870313181,0.00222154696124984,0.00158772811034345,-0.010111115024252,-0.0213172396787451,0.00721550376053778
237,237,0.0172905730707277,0.0865371847365171,0.951602959514332,0.00370510189552267,0.00198753029977892,0.00170349536610037,0.006727283264288,-0.00648950391045046,0.0351185483840645
238,238,0.0173033568825792,0.0865747989832338,0.951603715844136,0.00383000213532487,0.00171627084150978,0.00181667556470233,-0.00125569651738779,-0.0227955052816832,0.0204876986546199
239,239,0.0173182157438715,0.0866112941427906,0.951604839055653,0.00401179177295008,0.00151438995565368,0.00193159683476716,-0.0084909533549856,-0.0301211212579783,0.0294768587218841
240,240,0.0173358401553008,0.0866475877972441,0.951606392578664,0.00420047020659905,0.00101111223637196,0.00203647652753681,-0.000439274361033386,-0.0158892364180198,0.0121549641916934
241,241,0.0173557513136598,0.0866837194089695,0.951608502397689,0.0044357507962297,0.00103978878597336,0.0021223570954138,-0.0310957433641351,-0.0465298227483927,0.0241085602461571
242,242,0.0173774889615755,0.0867190772868193,0.951611126090227,0.00466540322328892,0.000798396151540833,0.00221803610446267,-0.0114234155716341,-0.0225355359872445,0.0369593504296834
243,243,0.0174017713851561,0.0867536022433936,0.951614074391407,0.00478473188831277,0.000597538697752076,0.00229142536923375,-0.00873533918124766,-0.0163011791065835,0.0466136253053186
244,244,0.0174293167952164,0.0867872350071143,0.951617157995891,0.00509411791178475,0.000360334498403349,0.002352533377591,-0.013789807028732,-0.0348290328577557,0.00477491230848101
245,245,0.0174608433276879,0.0868199162247553,0.951620187594057,0.00511465159999397,0.000437929772221663,0.00239396603357158,0.00917887201087054,-0.0334817308326499,-0.00108677679200921
246,246,0.0174989818751438,0.0868517925004649,0.951623212930362,0.00514731778287475,0.000497459838065295,0.00241204382100646,-0.00228613118517716,-0.0119505561927251,-0.00433732820756223
247,247,0.0175432536102642,0.0868829031861703,0.951626360014106,0.00513235186448194,0.000464464119438798,0.00239954720819326,0.0474322972838781,0.0185445509532904,0.0065574942338198
248,248,0.017589712042974,0.0869130281445034,0.951629554000345,0.00491055908567343,0.000471223456198542,0.0023494554128235,0.053213229432989,-0.0178062730116554,0.012471981544895
249,249,0.0176344106479771,0.0869419474344331,0.951632720016414,0.0049449351086801,0.000317217487889991,0.00228578305578834,0.00597980925363683,0.00256587774499148,0.0109443028544811
250,250,0.0176734028859332,0.0869694412739777,0.951635783221163,0.00495845284362206,0.000379039706512027,0.00221666554763727,0.0227027215145921,-0.0305332239797937,-0.00191217252230422
251,251,0.0177073697653762,0.0869974247170991,0.951637820978835,0.00514296663944004,0.000600598936451546,0.00206647035786348,0.0129022430417546,-0.0276841812842907,-0.0226725657883012
252,252,0.0177389422399452,0.08702604448411,0.951638883489262,0.00537541426092194,0.000331143297997435,0.00187328607041616,0.0237584322402109,-0.00260420811678761,0.00405038962782382
253,253,0.017767098779742,0.0870524283123673,0.951640355077301,0.00564570904056832,0.000429243509601853,0.0016890734765948,0.0141274694816368,-0.0218138696040733,-0.0136012304293322
254,254,0.0177908179922523,0.0870737038641798,0.95164361998075,0.00600937843244133,0.000556944764130793,0.00157657134908489,0.000944226743616007,-0.0374892442734714,0.00366203505912453
255,255,0.017809078673283,0.0870869985491415,0.951650062798851,0.00615288129031427,0.000476017003030793,0.00162831320729718,-0.0113066601486163,-0.0960662745612792,0.00227774226407
256,256,0.0178146965544344,0.0870971254228216,0.951658066960316,0.00612652511374492,0.000109081869901474,0.00189360246639568,-0.0062956275449803,-0.0697127331930755,0.0356301632007305
257,257,0.0178083529152626,0.0871059997159199,0.951666710946475,0.00589276280348827,-0.00052207711591007,0.00233705140782215,-0.00328349862375908,-0.0966241656419632,0.0475037781465257
258,258,0.017800825034877,0.0871064005537081,0.951678423502163,0.00580351264005417,-0.00155893812903942,0.00286097275384883,-0.0579752843758951,-0.1218758393857,0.0443110984258884
259,259,0.017802890543145,0.0870911040472315,0.951695635536989,0.00543290946049356,-0.00270874039942716,0.00337069335152939,-0.0541055369800333,-0.1369912127784,0.0728465372735004
260,260,0.01782532873885,0.0870528801906765,0.951720782588461,0.00496472202260044,-0.00439637526930229,0.00382396983418293,-0.100366109577627,-0.173055640092864,0.0680253853265974
261,261,0.0178823610343352,0.0869985002997067,0.951757606388851,0.00521645939347368,-0.00675833785009335,0.00422964520745053,-0.140833094082618,-0.189671212597742,0.0650769947735213
262,262,0.0179668113841767,0.0869327565122647,0.951804494566123,0.00577305373447781,-0.00983427753130715,0.00463351083852476,-0.189450461601946,-0.263789251618842,0.078915911518414
263,263,0.0180573619341648,0.0868454500328017,0.95185586943654,0.00634755946851923,-0.013646821968108,0.00498401595525713,-0.213180973759619,-0.306934931802223,0.0845506812385532
264,264,0.0181326888663972,0.086726396598602,0.951906175405337,0.00628616834873312,-0.0179954250879804,0.00522053652655726,-0.274792323496624,-0.342422067566084,0.0658388173750099
265,265,0.018171460628736,0.0865654325560947,0.951949888841657,0.00498830176837854,-0.0224922466033356,0.00525948588145371,-0.209710868950034,-0.354436313841233,0.0697339919884057
266,266,0.0181704887724517,0.0863760706975365,0.951988470369533,0.00189123941140074,-0.0268383223262884,0.0051534432246025,-0.20939346703401,-0.384504011944953,0.0290418222370067
267,267,0.0181439951011841,0.0861650868861087,0.952025716188684,-0.00244094285378896,-0.0308409471953552,0.00494795139259467,-0.268462334958633,-0.380119646969006,-0.000780604799757126
268,268,0.0180967499972238,0.0859122451257049,0.952059655417674,-0.00779790410138333,-0.0346733499503276,0.00461249406704325,-0.2571752536641,-0.422834742441264,0.0134702837231932
269,269,0.0180335137300388,0.0855973321261021,0.952088346866503,-0.0122885867591205,-0.0387871020751419,0.00407921883475272,-0.283320063677354,-0.444329366363742,-0.0294688433223672
270,270,0.0179590322106203,0.0852001660851879,0.952109891706595,-0.0154547492436786,-0.0431084931193747,0.00331965249261616,-0.295801254413958,-0.453003557613885,-0.0679504780002826
271,271,0.0178427559500125,0.0846996539027518,0.952128845250716,-0.0168535328489076,-0.0489103353127535,0.00229229851277482,-0.343381322597678,-0.433300249692603,-0.407094310265309
272,272,0.0176814779770062,0.0841092962112514,0.952146768057916,-0.0177444903428784,-0.0555171510373915,0.00104166367934501,-0.38460520547541,-0.351507163137151,-0.552005338267921
273,273,0.017520930916579,0.0834609228714143,0.952157346819494,-0.0186035721637874,-0.0616467708443602,-0.00036990153376759,-0.281769387978719,-0.394203340093395,-0.516087915244667
274,274,0.0174068327097661,0.0827865081541428,0.952154342547514,-0.0188444397188627,-0.0664280019508553,-0.00184447558879083,-0.258901628026366,-0.395844814446281,-0.325212312902307
275,275,0.0173848980018255,0.0821182002993908,0.952131654139421,-0.0188053808689922,-0.0682923665494699,-0.00325429166579003,-0.156712916478837,-0.453275182050121,-0.0542498171312491
276,276,0.0174807482959377,0.0813930964267238,0.952079674172359,-0.0150700515567655,-0.070629896358149,-0.00443685491009176,-0.10673985269698,-0.361055503868015,-0.133130672645738
277,277,0.0176638120085308,0.0805905034157654,0.952003366664858,-0.00852118567517503,-0.0730719201064176,-0.00535882541863823,-0.293770929679658,-0.329227538554659,-0.0582375363950896
278,278,0.0178955469991267,0.0798058488533896,0.9519186663397,-0.000521431215995888,-0.0756842325981884,-0.00650087185554074,-0.504945686392762,-0.173983818747973,0.0162898961203848
279,279,0.0181374310903212,0.07913423925707,0.951841555589926,0.00622717157815016,-0.0751842072029071,-0.00826608100691256,-0.722107916040271,-0.0797682484749335,-0.0222638501652904
280,280,0.0183509355161308,0.07867037202033,0.951788099669814,0.00958490637953363,-0.0697854757743246,-0.01117125561576,-0.557903194940175,-0.0458429623372415,-0.0767719760741849
281,281,0.0186010862393253,0.078416121321864,0.951776819003836,0.0106078345369291,-0.0570447203518526,-0.0161141224653277,-0.435043865515906,-0.0422038545066619,-0.164817170159259
282,282,0.0189133385079494,0.078308152732484,0.95179935912792,0.0104174300175773,-0.0378050100983428,-0.0228793102800757,-0.199007705871364,0.0367304285776987,-0.148427559072102
283,283,0.0191897942572292,0.0783430307511031,0.951830707650194,0.0122070264158294,-0.0158264963244947,-0.0301839085394589,-0.25835948651769,0.0678908975346142,-0.521923392355708
284,284,0.0193326619531265,0.0785174228174316,0.951844451208981,0.0119854861407369,0.00619328196473198,-0.036309309582425,-0.0469128456091384,0.114866085900522,-0.646309498710719
285,285,0.0192443354817295,0.0788281530761699,0.951812649218204,0.00891913557828482,0.0250501683063334,-0.0399676622004918,0.0666903607544968,0.151325035796827,-0.785009841538978
286,286,0.0188587601475202,0.0793628964842193,0.951721876761775,0.00114016640430799,0.0427080152241877,-0.0413079399660739,0.164057102406183,0.182554177982965,-0.728030678017943
287,287,0.0182407455017979,0.0801236984138576,0.951590533739656,-0.0107499057947646,0.0606934740981527,-0.0412433723821375,0.245003459280385,0.221040907477682,-0.57609364594841
288,288,0.0174895039370674,0.0809790588165188,0.951436421926699,-0.0257752981817457,0.0767470623273733,-0.0395967769977801,0.448249425288683,0.387751971569836,-0.186153547056389
289,289,0.0167047340600106,0.0817974695835486,0.951276264891623,-0.0415579397259573,0.0904240132163597,-0.0362720077251984,0.637987285075096,0.632080932171418,0.499657114991001
290,290,0.0159865190732059,0.0824474169320741,0.951125953635138,-0.0525560092511005,0.100108645361746,-0.0310716455344043,0.515571120169272,1.10441994626427,0.779257041813047
291,291,0.0152902800598651,0.0828805713493909,0.95096834224122,-0.059664730060002,0.106695146777134,-0.0221530002031489,0.444402444566414,1.55991741101331,0.858365808882111
292,292,0.0145499441860778,0.0831848019686481,0.95079075721441,-0.0647278792321288,0.110825687978915,-0.00943236947142181,0.650679077367398,1.83370545221832,1.06629423039412
293,293,0.0138333919307891,0.0834323926425943,0.950615431921682,-0.0678872902551797,0.112799969268439,0.00434728511425346,0.845671910589455,1.86474933365884,1.02574018124123
294,294,0.0132083749949075,0.0836951313465437,0.950464718170823,-0.0679158243307097,0.113455620770363,0.0159708151675948,0.832165565116219,1.83489334119455,0.877918412337948
295,295,0.0127425130727411,0.0840445671510454,0.950361151182051,-0.0643511708684694,0.113714079736348,0.0224203352159579,0.621002909698505,1.68875007922483,0.483318153873022
296,296,0.0124809785350121,0.0844570903702434,0.950331864479195,-0.0569418607754419,0.112054534103437,0.0228785991270884,0.596794473497369,1.47536116504416,-0.0174833965774046
297,297,0.0123781170720781,0.0848848648039564,0.950361820120756,-0.0489576890539364,0.108070502403648,0.0203353351773847,0.339563856528344,1.41070585536406,-0.317922443402094
298,298,0.0123652671036753,0.0853632952544882,0.950410587697106,-0.0392466293964749,0.104262321749273,0.0156288951638776,0.0997477090853047,1.31885007406069,-0.577592119057458
299,299,0.0123740207882323,0.0859277851661045,0.950437598218884,-0.0286760567952322,0.103365991694708,0.00968531631970164,0.0193852647039916,1.18226785097595,-0.803356551362195
300,300,0.012336314619345,0.0866135134069459,0.950401891270362,-0.0178030964747236,0.105721672619719,0.00350029027872162,0.0127417907826373,1.16155128635768,-0.78358933517439
301,301,0.0122865373138825,0.0873754065892063,0.950297525751468,-0.0100574964756774,0.110392053846758,-0.00321462081598418,-0.0291939759673797,1.06833226949625,-0.806625398637274
302,302,0.0122697066932103,0.0881912756763305,0.950152553725884,-0.00327674497509162,0.116159247111976,-0.0117525024810304,0.0237025744273963,0.972425716017127,-0.77397887488448
303,303,0.0122340163574183,0.0891296986542811,0.949976493126601,0.00156057723551909,0.121902028721238,-0.020598550906768,0.0692859473610315,0.939545626872072,-0.756794933997825
304,304,0.0121276803657418,0.0902582017885565,0.949778651963114,0.00398358616348284,0.128193675790952,-0.0278708667157715,0.081081385964345,0.759703310109291,-0.621510033845978
305,305,0.0118990019955284,0.091643254678303,0.949568179127751,0.00269278285942977,0.134112320694882,-0.0327638793634268,-0.133387503321923,0.8479848429801,-0.628660329457057
306,306,0.0115195419945006,0.0934466798195278,0.94932777798864,-0.00408640638825921,0.144883591727909,-0.033781911756355,-0.0655799810588389,0.6399724551587,-0.498120984510789
307,307,0.0110237232236853,0.0956230700916725,0.949052561907623,-0.0164314214412401,0.158563655102458,-0.0326588053825667,-0.0190595067548732,0.485428830708757,-0.214352311735053
308,308,0.0104546894372564,0.0979272911840963,0.948769555252768,-0.0293018135288043,0.173071608546823,-0.0299024950371374,-0.0834117441230863,0.126583470613364,-0.0184687720842358
309,309,0.00985580766797547,0.100114352272702,0.948504819377512,-0.038572202423738,0.186456876447805,-0.0266710556229464,-0.119743174933847,-0.245519553030048,0.111110799256739
310,310,0.00927044401361697,0.1019396179134,0.94828378368012,-0.0419399337343704,0.189979743891074,-0.0245474999817441,-0.256998309878046,-0.346549524724397,0.266638355139307
311,311,0.00866230497523832,0.103432654245943,0.948131550902211,-0.0398398783556607,0.179486160166374,-0.0220053871956706,-0.381692668474694,-0.455553650563535,0.349745169413877
312,312,0.00800297744567909,0.104757258893253,0.948032084206785,-0.03458063387164,0.157774236368175,-0.0183726430105429,-0.514431793666157,-0.547482850388593,0.326269263025972
313,313,0.00734733670339245,0.105870041292425,0.947949259866298,-0.0269310532475949,0.130143717570973,-0.0151720224587451,-0.76421368513142,-0.678756269352594,0.187083879492928
314,314,0.00675027951892855,0.106726417285312,0.947846841375342,-0.0207680975475759,0.0992838291749824,-0.0139771992732642,-0.721276719770939,-0.442130983067041,-0.163917110920139
315,315,0.0062667608779157,0.10728010819454,0.947688110465068,-0.0190053996564739,0.0714403914805959,-0.0164952390701365,-0.570786806375091,0.0656711939964486,-0.505192943919447
316,316,0.00601479745093343,0.107366053075198,0.947449560502629,-0.0196824131602298,0.0472850166298073,-0.0269719561840409,-0.350543804124406,0.506623198513637,-0.927901484874023
317,317,0.00595700937019129,0.107011899787586,0.947158433076145,-0.0210331535917746,0.0228174193110796,-0.044407127371904,-0.140044276935289,0.841230555388697,-1.23365577618733
318,318,0.00591522966120788,0.106460202105224,0.946852756981848,-0.0236773010424666,0.00237574872924464,-0.063074920575942,-0.017612861063103,0.910931417741793,-1.42999510939022
319,319,0.0057117152270147,0.105955532666684,0.946569427163898,-0.0290907125546489,-0.0104189309735949,-0.076650473118977,0.00835455367029184,0.574244374209066,-1.19980727185567
320,320,0.00516936993320939,0.105744660006616,0.946344059041524,-0.0416667577162341,-0.016613462177591,-0.0785447226820753,0.252179111209953,0.092195605476845,-0.677196614372707
321,321,0.00409392907401527,0.105856146823447,0.946146188023731,-0.0692368726595641,-0.0149548715477771,-0.0656761092150164,0.789313388511173,-0.533867156960717,0.0926523970589185
322,322,0.00260281620655687,0.106125733403007,0.945952777807885,-0.11168104022829,-0.003769590664763,-0.0430614750369367,1.33021385023605,-1.18941972005578,0.755384934539889
323,323,0.000987774826571928,0.106513693098124,0.945807265676559,-0.157500696953502,0.0112815172749328,-0.016047224166463,1.78492409771809,-1.42675668165509,1.43935002568347
324,324,-0.000458350531222373,0.106981716238659,0.94575056405973,-0.193817944950839,0.0291296410657582,0.0105293823179936,1.89094631417772,-1.66307726857542,2.48744144054564
325,325,-0.00144184228040725,0.107492401844194,0.945821714671155,-0.202701078444349,0.0444658756569176,0.0325794534993185,1.22618601453666,-1.60735121201602,2.92796331173392
326,326,-0.00191161051855777,0.108073085666653,0.946053701188888,-0.173721065880459,0.0480938661744463,0.0521321939982081,0.54041997544052,-1.53183863193404,3.03596769930552
327,327,-0.00206246669020482,0.108751154085348,0.946416414374222,-0.117723278396895,0.0434688124671208,0.0724613366232989,-0.473956268768429,-1.55111258691301,2.71915648196823
328,328,-0.00196929853062978,0.109488175244127,0.946853550170871,-0.0553293629364955,0.0351412849024195,0.0901536603097014,-1.01824266168021,-1.51728918313246,1.99455744730573
329,329,-0.00170680570031656,0.110244463639071,0.947309187533441,-0.000820188048601152,0.0240618628615497,0.103159440897285,-0.643178271957726,-1.56416179542789,1.28563041862723
330,330,-0.00134936567605361,0.110979822631086,0.947727937176796,0.0351458571147653,0.0149855531142311,0.109334746086346,-0.539485972643521,-1.84544159477889,0.0538596086586918
331,331,-0.000782034559453871,0.11174588168147,0.948134236863274,0.0461533931267657,0.017475036523605,0.106212928812244,-0.0514288993788366,-2.30852702873895,-0.170526604384842
332,332,4.45204167531828e-05,0.112568087127993,0.948565905906691,0.0461436674120373,0.0201307479424499,0.0968864609788491,0.138536854514354,-2.01421117533058,-0.564226940700841
333,333,0.000957649170742978,0.1133675261152,0.948988163902189,0.0400606008974209,0.0240194379242298,0.0838665615004667,0.0815421787937489,-1.89718295608687,-0.78420552731868
334,334,0.00178483228905113,0.114065716058328,0.949365652807409,0.0322631426133148,0.0288742617161175,0.0696778168285703,-0.108650645971716,-1.89523617069216,-0.983217178537221
335,335,0.00235381619047234,0.114584411785671,0.949661876754528,0.0270894742579597,0.0304753494593649,0.0571756171854981,-0.3266736905163,-1.71651561574644,-1.02508435629154
336,336,0.00263159302339156,0.114963784139514,0.949866393129532,0.0245128627658329,0.0252522720731541,0.0453742540341708,-0.495164321134062,-1.37170830264668,-1.10659458406054
337,337,0.0027324102354789,0.115257091056149,0.95000554881525,0.0205783974505878,0.013785953370506,0.0322303837525524,-0.539227207942095,-0.936874724692328,-1.17388001749518
338,338,0.00270532479030814,0.115405256380995,0.950096507846139,0.0151614856220262,-0.000649637855847631,0.0189988851225453,-0.347465772391095,-0.681078912551091,-1.06777231113136
339,339,0.00259971452586671,0.115348360300515,0.950155657887988,0.00827336834041152,-0.0173635443471038,0.00714485251221192,-0.110403720869578,-0.445768201628512,-0.854819021988815
340,340,0.0024652798728247,0.115025587179941,0.950198540449292,0.000949828407138518,-0.0321843136691407,-0.00201336450599359,0.118589743262016,-0.422725017718199,-0.618886653066705
341,341,0.00227393732967464,0.114310160951143,0.950227348306588,-0.00602040771240108,-0.0473003833422324,-0.00701050948803288,0.199488900340387,-0.397503339721955,-0.459020190762663
342,342,0.00199272268007777,0.113241458899992,0.95023235129982,-0.0125507242239026,-0.0643619284651759,-0.00864937885476702,0.205678595528765,-0.396299219965715,-0.370763468422637
343,343,0.00166421795721521,0.112007681352121,0.950210143458175,-0.0179365712200991,-0.0800705512198078,-0.00923641913118538,0.134606099494503,-0.411438497605324,-0.127641066553002
344,344,0.00133097612312516,0.11079755679764,0.950156922003713,-0.021504863030909,-0.0890956221924311,-0.0107111508984101,0.0253693832358368,-0.679330145233441,-0.506644615027494
345,345,0.00103551368564455,0.109800355395758,0.950068758161748,-0.0196613174687327,-0.0922302051776616,-0.0157908640301895,-0.152727904328987,-0.558122617630469,-0.493733130586756
346,346,0.000770540344412108,0.108955558802733,0.949951529764724,-0.0160138293993166,-0.0864185237033572,-0.0241951992287314,-0.370606394473926,-0.521803511401571,-0.695718594297163
347,347,0.00050782299799616,0.108136794588572,0.949809112393745,-0.00877465777302988,-0.0748388521229548,-0.0354215889700268,-0.666690850449859,-0.319811241912909,-0.8490769001113
348,348,0.00025839814997348,0.107435615484119,0.949634088830067,-0.0016613903310607,-0.0618313503950313,-0.0476110962464522,-0.912533991106569,0.0206936279440478,-1.09876505480977
349,349,3.32051296921548e-05,0.10694437044072,0.949418298876831,0.00402757665498128,-0.0454813355884212,-0.0596183297298581,-0.80361207008325,0.0977583909807866,-1.39430031352398
350,350,-0.000157024233263497,0.106755967674874,0.949153011759825,0.00696772848387839,-0.0244193741525625,-0.0701162938201911,-0.586788459954561,0.0460261660311207,-1.35232298803459
351,351,-0.000211952768559547,0.106939012533418,0.948821913669447,0.00833149968905446,-0.000289716749112384,-0.0809616198193892,-0.286164498516066,0.143275906345701,-1.43539612414104
352,352,-0.000139942021046675,0.107432089756633,0.948434434421728,0.00756998577222674,0.0278622866382727,-0.0936034399200865,-0.0920746474462261,0.31122645208733,-1.18736950328393
353,353,-9.31448707549317e-05,0.108133307313604,0.948018191949821,0.00475740780693998,0.0582642265552555,-0.105106473338968,0.395351873833112,0.125158667554893,-0.736322427493329
354,354,-0.000222714343338909,0.108941633864801,0.947597225079783,-0.00296999751060941,0.0872838624941863,-0.111796855071218,0.187620064750999,0.16525818014381,-0.502908039761099
355,355,-0.000678596075244836,0.109757225749157,0.947191661131029,-0.014818188140666,0.106253623805198,-0.110940436538799,0.0941988900199708,0.235428930759197,-0.386462782155516
356,356,-0.00160924948605904,0.110748558469099,0.946714553660907,-0.0324151522618119,0.114116732511955,-0.1009413216319,-0.0675657247877179,0.606550671845102,-0.141007539079149
357,357,-0.00291457037224476,0.111984585940197,0.946149700838599,-0.0548861071994219,0.115455020126342,-0.0836778243480359,-0.196153423526063,0.98859321892067,0.292554164097276
358,358,-0.00437035265822204,0.113215531198628,0.945619918536201,-0.0773011533839911,0.107801589267199,-0.0615745765877477,0.0670900908053209,1.34778001846488,1.2255015017203
359,359,-0.00575161790831036,0.114189572792017,0.945247206548224,-0.0972813273799277,0.0925189557911748,-0.0369452554337946,0.611551381226782,1.62828451461045,2.23122442115601
360,360,-0.00683268206204687,0.114653084653829,0.945153027636469,-0.10967553306268,0.0737892836935836,-0.011628567432897,1.10816077598561,1.76526365731945,2.97453965833695
361,361,-0.0076161307491166,0.114451782678414,0.945409776984104,-0.115125024839533,0.0507064860723481,0.0172162084407557,1.49011922154217,1.98281155870245,3.74853386375635
362,362,-0.00825106598752563,0.113753153497381,0.945933096330125,-0.1115263881096,0.0294189728628344,0.051670572623652,1.66082284791637,1.89120323492363,3.77587380999903
363,363,-0.00873155848406607,0.112785285353072,0.946609686141018,-0.0997023410004977,0.0129408161036288,0.0864734185405655,1.29384467357472,1.50047925285948,2.72509928022434
364,364,-0.00905194320452634,0.111776463601995,0.947326925770101,-0.0835761548285777,-0.00246378197332197,0.115289293705043,0.901564427900283,1.30114662373238,1.88821508084789
365,365,-0.00920661248951619,0.110955344303975,0.947972761366522,-0.0660730802193162,-0.0139905043886336,0.131673564617237,0.128048966355962,1.31242499603232,0.819839259021102
366,366,-0.00911211365763554,0.110275254473841,0.948582115736823,-0.0499288641203381,-0.021342368062571,0.132513660457941,-0.134403242177986,1.23109621889014,-0.0304412493855041
367,367,-0.00877217018571167,0.109584648582834,0.949230096386482,-0.0340620503587732,-0.0274921587050446,0.122114373674098,-0.0183594943705968,1.29061786442932,-0.521150878149105
368,368,-0.00831196624902008,0.108955013717105,0.949865244062018,-0.019501805575772,-0.031641310952757,0.105287257342981,-0.118311334726759,1.37576420738615,-0.845468668431216
369,369,-0.00785689112968075,0.108457195428293,0.950435844899233,-0.0069188473171084,-0.0310683239616849,0.0868300513925361,-0.128875634835672,1.37806466193208,-1.02362558986592
370,370,-0.00753255321369314,0.108161067944864,0.950889778379068,0.00307647162869503,-0.0251799199071921,0.0712055507059957,-0.0946919686700594,1.36478393226037,-1.14148197114121
371,371,-0.00732719022658497,0.108033064477342,0.95122380871314,0.0076177066167099,-0.0121025818466481,0.0571461606989578,0.053401180889835,1.28095996071662,-1.17599270264197
372,372,-0.00715772553445948,0.108027269666793,0.951473683852334,0.00718867524687001,0.00534768642653631,0.0416921600903551,0.211594666065848,1.33272308050949,-1.17415390385021
373,373,-0.00704289410219531,0.108193965189962,0.951645278612377,0.00334501043754724,0.0251227473792034,0.026299646236501,0.191618795289051,1.22981834622902,-1.11814089989181
374,374,-0.00700131538887776,0.108582947442618,0.951744136923413,-0.00117665156742109,0.0450243962371124,0.0123003609941571,0.196649647108882,1.0519783315493,-1.11820075890913
375,375,-0.00705137869576241,0.109243443173979,0.951775410255569,-0.00393881728161144,0.0615656213859199,0.000880044995915775,0.0630151859466945,0.81650497675108,-1.07227357662373
376,376,-0.00723365155567404,0.110257499882212,0.951729999452733,-0.00521046286581155,0.0759844923178532,-0.00770264495650077,0.0091948146400234,0.585970059437985,-0.892379890601598
377,377,-0.00753598189329807,0.111591394956716,0.951605458927909,-0.00587038251692562,0.0905789367678979,-0.014168654927535,0.0827758795376246,0.358603458227625,-0.699101602803874
378,378,-0.0078972798632024,0.113120383260899,0.951416289691018,-0.00588801660081479,0.105066211283253,-0.0190299027411176,0.17793852111191,0.203335691276399,-0.523631467120449
379,379,-0.00825646085246658,0.114720056948494,0.951176396628094,-0.00549013845180987,0.118493337667523,-0.022759388692006,0.296013588758597,0.019608102731473,-0.425955238579107
380,380,-0.00855256611271254,0.116266404268614,0.950899095360475,-0.0052594738551998,0.126967883895727,-0.0253129182089893,0.0973788883883651,-0.018758218095309,-0.0420885641375741
381,381,-0.00879441738481101,0.117812594169054,0.950544786187337,-0.00473508844014871,0.129843464902985,-0.0252319267238399,0.035253349427966,0.369064911496241,-0.358974879667078
382,382,-0.0090224145991345,0.119441330575575,0.95010478182891,-0.00300501598365942,0.129879970833616,-0.024483195518757,-0.286684019954888,0.333140172172155,-0.0641991284903544
383,383,-0.00922303334072933,0.12107268480443,0.949638038726028,7.68145903385725e-05,0.126751111490979,-0.0232011736034499,-0.49780221915126,0.292462008027257,0.0657958209092775
384,384,-0.0093827334274476,0.122626065794903,0.949203153179233,0.00232983622738326,0.121838461491101,-0.0228502401540406,-0.640552025617283,0.0501919192817186,0.0860519756607464
385,385,-0.00948797317065301,0.124020253738788,0.948858775111007,0.00241969982873992,0.115538729436155,-0.0240273774366192,-0.683970474058203,-0.00192133661523372,-0.0656492350559774
386,386,-0.00947535852073451,0.125271720735768,0.948644473412845,0.00244659390176935,0.107230352765879,-0.0280930643959803,-0.740283068070669,-0.156270367864681,-0.118259128883154
387,387,-0.00935369590065179,0.126432753547762,0.948522966669358,0.00381074900789704,0.0962340221451753,-0.0337545135626922,-0.444811873385025,-0.194293333550429,-0.368547761959275
388,388,-0.00921785824443941,0.127476085072041,0.948437705605078,0.00677815918687374,0.08509180873695,-0.0402681405184252,-0.516701860505663,-0.360627116969613,-0.71018569035181
389,389,-0.00916282571744467,0.128375053985418,0.94833126189857,0.00908771102164961,0.0743343269447031,-0.0467422059513144,-0.510536962689904,-0.538721791792971,-0.952525702660523
390,390,-0.00928372889809015,0.129103373505957,0.948144964781826,0.00779855198361988,0.0628732225865413,-0.0525499193494453,-0.316235562192245,-0.262772589988585,-1.17032951136307
391,391,-0.00958984641559806,0.129541341418752,0.947839479818943,0.00144954279914261,0.0534791559050227,-0.0605408291496215,0.0492864950207794,0.303131838084467,-1.32576349939605
392,392,-0.0100185358942774,0.129704905791634,0.947455967363604,-0.0073553056099901,0.0454677794968497,-0.0712260246491145,0.301441019422209,0.656094812460088,-1.35275185034198
393,393,-0.0105570295665071,0.129772517596367,0.947054574635996,-0.0180057284267885,0.039934091905908,-0.0806014621329324,0.348300511781589,0.689550562747971,-1.0917707257968
394,394,-0.0111921103268401,0.129924463713409,0.946694079196789,-0.0303461049235981,0.0370666033085312,-0.0842233440680741,0.314939228805509,0.451253155601117,-0.389948705950842
395,395,-0.0119099010584329,0.130342926264983,0.946431727788102,-0.0455897997494195,0.0377050020624869,-0.0788280375888926,0.499340216612895,0.00548557135435639,0.54002626869623
396,396,-0.0128481755216095,0.131129378764459,0.946248456351899,-0.0652060203442514,0.0468927829608509,-0.0611239040345067,0.926023477264002,-0.868833654160887,1.48224887086537
397,397,-0.0140160901756521,0.132163939578314,0.946105312838019,-0.092432192759183,0.0597343813187028,-0.0335314846597498,1.26894753805609,-1.42090791988541,1.93152451958298
398,398,-0.0152058750814328,0.133298434073171,0.946027535434879,-0.120550909171385,0.0684479459357602,-0.00167225543479912,1.35089499197439,-1.49114417060199,2.25614678200098
399,399,-0.0162093357807169,0.134385202481883,0.946039376310385,-0.139587855535292,0.0722754640887738,0.028922962678615,0.999030556715443,-1.5247791448362,2.39324489524645
400,400,-0.0168180595226697,0.13527685685748,0.946164392539325,-0.140599367817086,0.0716034958642566,0.0528795609109532,0.402140584386615,-1.52817113702822,2.51044682890717
401,401,-0.0169465143716281,0.135931883268047,0.9464315728758,-0.117256511730701,0.0627236883430513,0.0711860828746033,-0.469573107032825,-1.5466527936623,2.28069682822588
402,402,-0.0167331172899446,0.136450624370498,0.946822511758965,-0.0792224561667928,0.045337563383736,0.0874619502200838,-1.06199711250481,-1.55974603925441,2.02182602703919
403,403,-0.0163053214467717,0.136897101468379,0.947289031460817,-0.0381813792242757,0.0230987585143962,0.100432787694457,-1.07975772419659,-1.53047921497917,1.76855531220555
404,404,-0.0157902719410374,0.137333856934041,0.947782892297057,-0.000635733069636827,-0.00116942299570153,0.108800868265976,-1.11534078840548,-1.43246707001197,0.893783691950484
405,405,-0.0153147570797934,0.13782258621734,0.948256059303292,0.0227547498660053,-0.0184316177777562,0.111549608189093,-1.01966868327337,-1.64023004561923,0.032219920108028
406,406,-0.0148054369608846,0.138399414662996,0.948738237986878,0.028608548857209,-0.0214666060264478,0.106756465218931,-0.578873095091996,-2.08566619418919,-0.524787351398979
407,407,-0.0141777831293332,0.139021656136463,0.949260740843284,0.0235729008167828,-0.0127460814434291,0.0952856246589076,-0.199051922361632,-2.35976628717381,-0.924618289678176
408,408,-0.0135417560858954,0.139632992216306,0.949778597224431,0.0130164510301167,0.00130401468697172,0.0802103351016747,0.224470307154673,-2.39550556313933,-0.931912310199413
409,409,-0.0130072563004391,0.140177364003743,0.950247053037553,0.00252749248630244,0.0139029293034465,0.0647006324645841,0.224073933991246,-2.1952809162432,-1.01123000538557
410,410,-0.0126839960292057,0.140598739103244,0.950621300047154,-0.00244740600393575,0.0193774102322206,0.0516189287189387,0.106595334961005,-1.94061517786795,-0.971744330036485
411,411,-0.0126232499101879,0.140957839130166,0.950895043211449,-0.00246589251814774,0.0160193662332957,0.0402653795502033,0.0559301045913818,-1.44812943207355,-0.954931629547855
412,412,-0.0127524805575396,0.141292397186297,0.951100312956153,0.000384345920855173,0.00643417748657647,0.0286299002546781,-0.0126920497082778,-0.950463683721516,-0.954604225530817
413,413,-0.0129953286504275,0.14151167516333,0.951249191937964,0.00350051933770344,-0.00710293855725443,0.0176712905237277,0.0295682039660744,-0.606960542905493,-0.856573685550222
414,414,-0.0132751117113822,0.141524639048186,0.951352992193053,0.00593686210332121,-0.0224666643782038,0.00826014394668709,0.0646045126570648,-0.380594569574241,-0.716423319415295
415,415,-0.0135148172024667,0.141239891672173,0.951422077909302,0.00657721105088976,-0.0363693008130927,0.00106633482644971,0.170883995103681,-0.326905988887825,-0.452773962130744
416,416,-0.0137350607422486,0.140571904222247,0.951449827982828,0.00446022807277833,-0.049254150797033,-0.00322478476989133,0.328527505273779,-0.326751631632733,-0.241130498388704
417,417,-0.0139872068972033,0.139581332326704,0.951430648088328,0.00141535523956942,-0.0634785452721258,-0.00496382368240812,0.48448650554314,-0.468498898068728,-0.16017142632381
418,418,-0.0142400673207979,0.138395786043734,0.951374898868613,-0.00163085015418776,-0.0763338959532812,-0.00542795807896713,0.556826499524163,-0.557055749247828,-0.195413840091294
419,419,-0.0144623300491124,0.137142875856335,0.951291881510768,-0.00355893306192648,-0.0873483056823229,-0.0059152672523523,0.41926247552397,-0.627465465805727,-0.261466104000901
420,420,-0.0146225610433291,0.135950224404657,0.951189900545664,-0.0041091434436433,-0.0950508056720172,-0.00758004729537184,0.232479115068659,-0.626481450355004,-0.328151206281437
421,421,-0.0147100949324377,0.134805490955204,0.951055178154858,-0.00148713832996939,-0.100486719946668,-0.010608303908092,-0.0755062625253946,-0.389363735683788,-0.466556375398074
422,422,-0.0147456820494041,0.133623046701954,0.950881041605409,0.00304267910732638,-0.103854529962045,-0.0143908637427984,-0.37980817366189,-0.203244901046285,-0.432547532820896
423,423,-0.0147449120347497,0.132420915845059,0.950686041217083,0.00787694593884189,-0.10547423131581,-0.0184879694147802,-0.580691665806898,-0.341129354685628,-0.24882069861311
424,424,-0.0147233649182978,0.131217490383736,0.950489066005753,0.0143746830244766,-0.106484585009394,-0.0216624075229582,-0.667630850659323,-0.497067152541307,-0.431818967055838
425,425,-0.0146966207628799,0.130031494205717,0.950309377686252,0.0163575239244496,-0.107522007329374,-0.0252979487074739,-0.651981983500525,-0.455585032824716,-0.271822912955743
426,426,-0.0146267107110462,0.12880983959197,0.950162591949011,0.0144200276985111,-0.108080658400272,-0.0284550534092064,-0.472125059734182,-0.383812348254005,-0.151839422332058
427,427,-0.0145030935985675,0.127540051490202,0.950036601277426,0.0110140187621021,-0.109465357176506,-0.0317376459224503,-0.381562091527119,-0.380973624624366,-0.342632835196444
428,428,-0.0143825360446423,0.126302280900236,0.94990902311256,0.00465460160665863,-0.113044803139265,-0.0346116644333091,-0.225636604553644,-0.15283870302452,-0.404390771242287
429,429,-0.0143218559110383,0.125177125103225,0.949756952353378,-0.00489788457370565,-0.11151242520435,-0.0370011736173104,-0.179208150586898,-0.172808385160364,-0.584479493092407
430,430,-0.0143779485398627,0.124245704185277,0.949556990565127,-0.0144794011230633,-0.106381821702449,-0.0392409614320308,-0.229672515872076,-0.0108910263587521,-0.602902298436261
431,431,-0.0145826402266178,0.123568362938156,0.949291916917552,-0.0213904089312745,-0.097914662402602,-0.042054637967859,-0.340120031429135,0.131284036421728,-0.522171522060471
432,432,-0.0148982643950015,0.12309227628426,0.948977876625655,-0.0282438785505779,-0.0831220480614368,-0.0450432010226623,-0.432816335265931,0.212945905942888,-0.443988929609946
433,433,-0.0152775681322346,0.122728931413138,0.948640943309839,-0.0354531519201929,-0.0662372967620511,-0.0477335885173241,-0.425867250289031,0.229156271140673,-0.318005447363573
434,434,-0.01567321819367,0.122389479649187,0.948306653133846,-0.0410643195519143,-0.0489489075803692,-0.0497249966433625,-0.401547706784432,0.123954066998446,-0.119836201259454
435,435,-0.016037805693872,0.121984774498018,0.947999908563994,-0.0429905826909977,-0.034129608386158,-0.050202763134876,-0.380414416891067,-0.0817983551329133,0.0216173229606438
436,436,-0.0164000544861675,0.121496055383592,0.947685795143801,-0.0374344857262116,-0.0253343874519369,-0.0500931139111468,-0.284513792009734,-0.0596737497859031,-0.000597438093904258
437,437,-0.0167926038693446,0.120983653164289,0.947348106991769,-0.0254453221632134,-0.0232637234506273,-0.0497538771797444,-0.0664750600915822,0.256840900501113,-0.0273311247448691
438,438,-0.0171732807521612,0.120476429857691,0.947038622480451,-0.0117328978563696,-0.0272285804665398,-0.0479135315736385,0.152126164890606,0.690960067868123,0.0603778612327608
439,439,-0.017498833617564,0.12000256119022,0.946808013521844,-0.00115630867228299,-0.0329553093763566,-0.0433541788053997,0.506830047525752,0.892061386001779,0.244807836511075
440,440,-0.0177249168313433,0.119589543450203,0.946705921950789,0.00263061869583389,-0.0359972853694638,-0.0347905662252846,0.671240251476417,1.11263187730289,0.592262326171357
441,441,-0.017821704323052,0.119282103038492,0.946756225998042,-0.00201109100407286,-0.0328616539887489,-0.018982850094966,0.702610835975887,1.26907496571425,1.15185203246026
442,442,-0.0178175601576915,0.119061994129507,0.946924220989867,-0.0118001673989941,-0.0244645361526906,0.00349486588039967,0.694967773567692,1.1854827911627,1.71067623129786
443,443,-0.0177549299388364,0.11886100569746,0.947171050888703,-0.0238069969359164,-0.013084913127677,0.0280255140928217,0.65092225930189,1.33594307643252,1.97969556746299
444,444,-0.0176765498641992,0.118609954936196,0.947457746507409,-0.0344556388331611,-0.00181325501683816,0.0492286991850214,0.521165536581292,1.53442940834853,2.03101606885748
445,445,-0.0176254226036626,0.118238975392662,0.947745221553481,-0.0409688492994836,0.00611870100056809,0.062980669024906,0.460469079222491,1.71191736485666,1.72454274814803
446,446,-0.0175998080349612,0.11768992362751,0.948056378336322,-0.0425140485992868,0.00704852426810872,0.0684593483397682,0.423893699600593,1.83934695119199,1.11215700183951
447,447,-0.017571023161653,0.117007953751524,0.948416267112466,-0.0420832585319689,0.00308676774032472,0.0685373701570138,0.350024252084399,1.88423142045414,0.327375253145003
448,448,-0.0175417586644607,0.116278493895004,0.948788898043462,-0.0403426833777506,-0.00286101177536604,0.0645577000602209,0.359914477068519,1.90033537839667,-0.30564787666473
449,449,-0.017514640631661,0.115587661401454,0.949138299151399,-0.0376213439207561,-0.00749518402440476,0.0582603070164057,0.372372042127893,1.78396322961855,-0.767685993503782
450,450,-0.0174922254370592,0.115021956552936,0.949428700030419,-0.0344356921829167,-0.00985796233531999,0.0516629663555491,0.384264927679864,1.66107611141008,-0.925158619900857
451,451,-0.0174793694839981,0.114512231322481,0.949673205213607,-0.0303283879377482,-0.00920017821113502,0.0444869103491923,0.434727787381365,1.46464442162599,-0.799132196654671
452,452,-0.0174746598730997,0.11400213486354,0.94989605831482,-0.0242505281798669,-0.00642990234273783,0.0357152087909639,0.471083490630706,1.27966189434589,-0.612506362711902
453,453,-0.0174713367365889,0.113597204786271,0.950078584057163,-0.0160936997449053,-0.00222807957310666,0.0260913098151682,0.350627893626441,1.24768419300617,-0.614858661679292
454,454,-0.0174627802691949,0.113402596951437,0.950202116634083,-0.0089658067400919,0.0032339000444091,0.0161332173509461,0.241880933370275,1.23232609799466,-0.69642739581367
455,455,-0.0174424297588381,0.113522955446993,0.950247902498021,-0.0037867240477293,0.00939356196007506,0.00652663378178349,0.247977661752079,1.32523956931864,-0.662503115426503
456,456,-0.0173801645949346,0.114022251092481,0.95020375727129,9.48143247847992e-05,0.0192521992935855,-0.00304288722579904,0.24062845136775,1.27902510800808,-0.661608834365692
457,457,-0.0172813786464166,0.114830487686012,0.950084838110707,0.00391255448972409,0.0333965806813305,-0.012896418303397,0.264923277008256,1.20878201170378,-0.660902819901816
458,458,-0.0171923427749227,0.11585098194789,0.94991249920958,0.00823144822615181,0.0515929121442977,-0.0219116904126647,0.168559646501829,1.03099187342009,-0.754860415395165
459,459,-0.017158796259538,0.116987366824792,0.949706622968393,0.0122144182429968,0.070606724957306,-0.0292626604243587,0.0984402389659531,0.692358360460186,-0.821529102047598
460,460,-0.01722600084936,0.118143696030069,0.949485439025454,0.0147210992932661,0.084758391485808,-0.0342113373435828,0.0487810871873941,0.458868694565488,-0.850242766061937
461,461,-0.0174282731457089,0.119397538816513,0.949199987054609,0.0141080815478749,0.0938095726969846,-0.0368775466310787,0.0935552452424511,0.179779721850816,-0.728473661072713
462,462,-0.0177352110302295,0.120813405471044,0.948838127903624,0.0105920258075427,0.099184994971841,-0.0377170069926625,0.0901947021263249,-0.0885788535496854,-0.179677269856828
463,463,-0.0180945188891101,0.122275371082846,0.948471648813438,0.00601050411626375,0.0990486623673723,-0.036222177432202,-0.0627749562882063,0.0674939534552047,-0.194413612339265
464,464,-0.0184536824633329,0.12366666430294,0.94817172953041,0.00170327721177428,0.097411858702404,-0.0342593644063965,-0.278311293050264,-0.162149712325844,0.106352913005243
465,465,-0.0187599883056123,0.124869800224471,0.948009098274001,-0.00203535650246943,0.090583753650216,-0.0313045117835671,-0.0293778896402295,-0.324696108833096,0.406536920305429
466,466,-0.019031010143882,0.125899089308266,0.948058242166032,-0.00675046086067122,0.0794743013103874,-0.0245695181847409,-0.20303884494197,-0.566768948660946,0.884177347480542
467,467,-0.0193010528936839,0.126831545548232,0.948271072296544,-0.0106357062152116,0.0646288303399068,-0.012820199330941,-0.49521851342238,-0.648281801880448,0.920034005685662
468,468,-0.0195426175258442,0.127643741883991,0.948534601544137,-0.0137392259530894,0.050062415991083,-0.000250855065482142,-0.69430634709371,-0.840907616001319,0.933064992103525
469,469,-0.0197285774590845,0.128312715755214,0.948736302183477,-0.0145456303814689,0.0389180961913642,0.00925576334134437,-0.557965723997918,-0.626514499404517,0.55065757384513
470,470,-0.0198321602643288,0.128815743563214,0.948764184862507,-0.0108990253161513,0.033109442528785,0.0116451723020509,-0.556595649711904,-0.353558666371337,-0.0680632679304849
471,471,-0.0197874793294597,0.129074947138659,0.948563497946087,0.000481819417396133,0.0301332444705408,0.00336104480743577,-0.811325854028171,-0.0236743497288363,-0.825546878910903
472,472,-0.0196124370258024,0.12910564383856,0.948211256421897,0.0143210709612173,0.0258955613845618,-0.0132524072776312,-0.616895694774009,0.324828873153141,-1.17932178064399
473,473,-0.0194062347200056,0.129024451212376,0.947792921257327,0.0247166527658489,0.0191990101668071,-0.0323110370992097,-0.573316307325778,0.768605129152726,-1.3793602303012
474,474,-0.0192681799014873,0.128947378832817,0.94739264669129,0.0308203626162487,0.013779091432195,-0.0484606043784371,-0.362828069509332,0.995180668416702,-1.4170115462522
475,475,-0.0192977133244765,0.128989929522138,0.947093035654125,0.0287977064838384,0.0125207571194701,-0.0562900297972777,-0.0166568805797442,0.608790505948314,-1.28534265263123
476,476,-0.019553356969371,0.129140776111063,0.946884886076136,0.0134948811035829,0.0161297478224166,-0.0544981910460892,0.534769274111995,0.236958372678378,-0.846520888987515
477,477,-0.0199697268866084,0.129320510366766,0.946713318901876,-0.0140528850324301,0.0242080348892731,-0.0464605234146776,1.05412843468676,-0.0822848655058553,-0.186966666340248
478,478,-0.0204601165595188,0.129543798970686,0.946590846092989,-0.0490124441778892,0.0315977758692086,-0.0340074324940728,1.38769993608829,-0.236680695629252,0.762100223936203
479,479,-0.0209370273798429,0.129827314065183,0.946529432290456,-0.0806626824956391,0.037252841764655,-0.0199133690099008,1.43236277982622,-0.622011692931739,1.65891856322016
480,480,-0.0213120781793125,0.130189533162154,0.946540503684819,-0.0982023106432759,0.0376074034329907,-0.00677255321909516,1.06513608850838,-1.08199282687115,2.07108630410286
481,481,-0.0216353977426872,0.130687316020968,0.946637274495841,-0.094009298761922,0.0321868378808063,0.00756840616993499,0.55543739124954,-1.47775218783079,2.08401771705566
482,482,-0.021965243884148,0.131310828065472,0.946811741390202,-0.0711469827541275,0.0215115944467195,0.0250115875828439,-0.0785793001281415,-1.52863334340591,1.61757555785609
483,483,-0.0222247442476733,0.131979174297139,0.947041902297911,-0.0398900566243098,0.00954060860961619,0.0425777095464791,-0.359562827014884,-1.4809018982481,1.38732948311388
484,484,-0.022336948310094,0.132610711807858,0.94730432626069,-0.00930914244859487,0.000148275373041538,0.0569034877041643,-0.502643725897302,-1.59377291448908,1.10903041496268
485,485,-0.0222249373901937,0.133123041161912,0.947574557963855,0.0118612082806075,-0.00448366363120716,0.0650527083837136,-0.522811710076603,-1.7140204048931,0.677580056643177
486,486,-0.0217621765439888,0.13348968331197,0.947875167934547,0.0210159597879386,-0.0077967727775572,0.0667616025875206,-0.325877676349039,-1.64590477270345,0.157641238801172
487,487,-0.0209998012491917,0.133765485797671,0.948219810138408,0.0223408943359509,-0.0103383863117824,0.0635286125172848,-0.0867805371580266,-1.71911664621442,-0.315491793391826
488,488,-0.0201275485082025,0.133989102607925,0.948570672533052,0.0169228694518883,-0.0114147472029025,0.0568807510159353,0.316648479294813,-1.94667218714676,-0.519328575504853
489,489,-0.0193350809700642,0.134198890526814,0.948890581989133,0.0107532072751012,-0.011737473901612,0.0489332900117954,0.47504729356499,-2.17192968745817,-0.651189827230444
490,490,-0.0188118881909259,0.134433272913187,0.949142939084296,0.00734064308387366,-0.013134053168399,0.0420003987396817,0.325685545230853,-2.24290274331311,-0.676891938839167
491,491,-0.0186365977615772,0.1347906872235,0.949324671438026,0.00734334327966276,-0.0158468367041333,0.0353670201062277,0.12752321722405,-2.09603932087596,-0.540502402506219
492,492,-0.0186833948976094,0.135244994479132,0.949461543066336,0.0110984899432293,-0.0188363635445759,0.027883830491592,-0.284816739043412,-1.88713158020918,-0.573107060683533
493,493,-0.018834912841932,0.135648224696417,0.949560438105083,0.0168801374891611,-0.0226126363813163,0.0204761773671058,-0.584144195203771,-1.63053653457506,-0.512577239231155
494,494,-0.0189736031108923,0.135852475012533,0.94962787098663,0.0227807115224822,-0.0275364221702652,0.0140659504998166,-0.649510284019645,-1.27498776986529,-0.44253829760405
495,495,-0.0189816851173014,0.135709699135456,0.94966972119353,0.0271525792248252,-0.0336582530323008,0.0095238633106385,-0.488263187086931,-0.972852006658572,-0.236200827180839
496,496,-0.0187970828653891,0.135132879464133,0.94967023334023,0.0287390623973324,-0.0426164392789617,0.00770188329059738,-0.265947542373058,-0.568555529333717,-0.0908733538413
497,497,-0.0184986267531115,0.134221353820975,0.949627499436932,0.0284295352335253,-0.0557957201852417,0.00777216341046324,0.0150937834971112,-0.330778875921074,0.0633608702353361
498,498,-0.0181796673407509,0.133105883364607,0.949566915276757,0.0255694382200519,-0.0691102861583482,0.00861384064140605,0.359327291782272,-0.242717913724261,0.0880586482740507
499,499,-0.0179334673232293,0.13191642951576,0.949512910859204,0.0199173054282082,-0.079601404265197,0.00910671900518861,0.465440181116682,-0.232308042209506,-0.0348290598738171
500,500,-0.0178531820853005,0.130782218685713,0.949488871479266,0.0126140137631964,-0.0851456493646954,0.00813558512746144,0.259075135792231,-0.191380943050727,0.0505733535431922
501,501,-0.0179888046093691,0.129655783613892,0.949509506763124,0.00326777699997824,-0.0864228031494799,0.00795828853785853,0.327173623621828,-0.244279939755865,-0.345075135975532
502,502,-0.0182783442403638,0.128449422988045,0.949559061470833,-0.00731247799152061,-0.0837757352762142,0.00574128808498323,0.0502536886757396,-0.219348424649783,-0.457538254049549
503,503,-0.0186466623878395,0.127232292433737,0.949614171256144,-0.0151492100362346,-0.0808750492201707,0.00323027702101997,-0.0764391468545248,-0.156649709528646,-0.385128682762872
504,504,-0.019018356756842,0.126074356503985,0.949651227617097,-0.0212834995510308,-0.0768742861714918,-4.49507440619103e-05,-0.266795356387027,-0.081975826762299,-0.231805198594681
505,505,-0.0193178097366901,0.125046299572698,0.949646519654471,-0.0234995883571497,-0.0751559585209245,-0.00380576359812904,-0.394354333538335,0.0354130051020301,-0.128431406882415
506,506,-0.0195787571614839,0.12416773033708,0.949597101011571,-0.0205488117743498,-0.0780754375512057,-0.00867494142399927,-0.729850585779757,0.1206079868073,-0.336749372319462
507,507,-0.019851067525162,0.123391906775529,0.949518523048983,-0.0158822725494059,-0.0829174061248154,-0.0143192355060304,-0.891984161740265,0.218305179821267,-0.601518866597311
508,508,-0.0200832806390644,0.122690814943878,0.949414889709699,-0.0108504427143943,-0.0876243123665795,-0.0203710857703277,-0.813370568043109,0.207400498626249,-0.750768692169552
509,509,-0.0202240573603229,0.122036864203157,0.949290360408013,-0.00695754612898303,-0.0885309184589748,-0.0258649995166454,-0.542436692181705,0.272159242142031,-0.599869943921275
510,510,-0.0202222283009064,0.121402888634744,0.949149183831803,-0.0066643318632882,-0.0828027463389177,-0.0298140570403945,-0.332710097279971,0.198831278762792,-0.352386998860832
511,511,-0.0199898284243766,0.120760892084766,0.948980410620412,-0.00719579455202211,-0.0724386891645434,-0.032214956069627,-0.128942434378624,0.468789598704574,-0.117980197163813
512,512,-0.0195612050307445,0.120130407310508,0.948782562309108,-0.00587879063938884,-0.058611535816051,-0.033661182169262,-0.192070977133089,0.544203435764755,0.0310557755299938
513,513,-0.0190688203987325,0.119555440114375,0.94857366983878,-0.00460828269222927,-0.0410129343457322,-0.0344202308849572,-0.363861720569025,0.407332156078165,0.134737341078862
514,514,-0.0186449997271652,0.119079551622537,0.948370883092885,-0.00147830761660065,-0.0237024780786922,-0.0349589390061286,-0.443302799746624,0.177401033900178,-0.0942384577877594
515,515,-0.0184219123215579,0.118746003670476,0.948190361681453,0.00188300577876835,-0.00936383293908157,-0.0358738285559306,-0.470078670827809,-0.00217361706688264,-0.322921974749462
516,516,-0.0184373934573695,0.118612621196336,0.948022900616687,0.0051004005850692,0.00105036735568758,-0.0386511739504585,-0.38071860567892,-0.0173417539048514,-0.461870568991959
517,517,-0.0186041554645558,0.118651214401965,0.947858197100107,0.00804861615547828,0.00955683196883467,-0.0428898361729061,-0.275564585929809,0.0995867323939599,-0.529066298057672
518,518,-0.0188661859171855,0.118775632820056,0.947709157959369,0.0093256079272175,0.0135907506698128,-0.0463997541367416,0.11855523909703,0.315841557872026,-0.355046813528479
519,519,-0.0191666794483038,0.118899207806149,0.947587404639833,0.00681312741347318,0.0127338383358982,-0.0471563001408671,0.638093448760606,0.656470997268496,-0.0990814973632713
520,520,-0.0194479498256309,0.118934675900871,0.947503341570723,0.000665328280914927,0.00950950320564642,-0.042585039010137,0.927404626368439,0.885878041646056,0.339789212704983
521,521,-0.0197385397774191,0.118913084330203,0.947429462290092,-0.00828246899338864,0.00780368016760236,-0.0296807801646569,1.06949135170067,1.03943369569411,0.87133670377647
522,522,-0.0200759686924709,0.118892820893589,0.947356836657517,-0.0181659661784926,0.00775257309712129,-0.00986309547874785,1.13737626026272,1.1164799525405,1.3943906939659
523,523,-0.0204154887999865,0.11882638443958,0.947322968365392,-0.0273697281830627,0.00690532106119904,0.0122298391901366,1.04445544609373,1.28955150340686,1.59331493019923
524,524,-0.0207125640252274,0.118665354176562,0.947365322524199,-0.0344701778278097,0.00541581654052354,0.032760059799829,0.775765644575636,1.31679145283509,1.64833132281811
525,525,-0.0209229120421279,0.118360725738068,0.947521360789326,-0.0378123877228666,0.00294573796865082,0.0478173328878664,0.580537860693861,1.31454757214362,1.54015721755452
526,526,-0.0210430797710007,0.117853995508797,0.94784595560555,-0.0400628172931773,-0.00275592805399346,0.0575689905522791,0.400085053371058,1.29759644447671,1.18259544911327
527,527,-0.0211025309404325,0.11717663566928,0.948312935153145,-0.0428177363233231,-0.0104778707565629,0.0646430601195787,0.392667550017759,1.30909703365761,0.849490007816938
528,528,-0.0211064825923297,0.116414900708063,0.948838317238594,-0.0450576612701838,-0.0194819203735067,0.0684257483258753,0.594333199394822,1.43962976825458,0.413271013081842
529,529,-0.021059980165034,0.115655488504642,0.949338316442071,-0.0452856321118144,-0.0261485354615319,0.069335406756504,0.555723033355221,1.51678665246804,-0.02233766884193
530,530,-0.0209678588404424,0.114985248350535,0.949729442187422,-0.0435086824370746,-0.0280520235334625,0.0674587133766089,0.326202502134942,1.5691562836578,-0.285702199200327
531,531,-0.0208060521841224,0.114309446090101,0.950015387930042,-0.0380954849323041,-0.0273065715830234,0.0619064383792606,0.0646935938183701,1.46618815347204,-0.398771943405985
532,532,-0.0205712647363178,0.113571285691542,0.95025246893763,-0.0292866279375089,-0.0253166355885789,0.0527229617846005,0.00478236151415151,1.26585895105351,-0.452840260238589
533,533,-0.0202995734886869,0.112914207622381,0.950436413708349,-0.0184864385354142,-0.0218534252164535,0.0414954240723688,-0.0773103388729753,1.09488519564599,-0.690978032510768
534,534,-0.0200273485058178,0.112481177799215,0.950562746160726,-0.00863079871125032,-0.0153069887984281,0.0296116939604745,-0.010805635679802,0.966947917176588,-0.81199875543033
535,535,-0.0197911693801926,0.112414568051095,0.950626633474119,-0.0017880485666416,-0.00521531723352286,0.0185412921283324,0.0768615529782102,0.941321288203109,-0.904755046403505
536,536,-0.0195610713640409,0.112763061497964,0.950625918626684,0.00222225340859915,0.0105306066891074,0.00778265006747974,0.132573659496662,0.926085703637521,-0.922092307393683
537,537,-0.0193134375071198,0.113431253731733,0.950565378896375,0.00449442807279072,0.0316005312948502,-0.00374814870307831,0.261044948985022,0.861928639490706,-0.947210876286427
538,538,-0.0190941302383889,0.114344956984924,0.950449890568647,0.00605025734374429,0.0546018258727532,-0.0150430927168723,0.225905873119698,0.759914667604073,-0.946995061079173
539,539,-0.0189486806145802,0.115430186931257,0.950283633550364,0.00728814726251726,0.0765592599843053,-0.0251052745680147,0.134664725312226,0.68764571112647,-0.95527688965355
540,540,-0.0189223316879321,0.116613269007866,0.950070035554195,0.0074274194879735,0.0942197694595727,-0.0330246549978192,0.0935769990852376,0.492167771879251,-0.866064429181971
541,541,-0.0190524591024407,0.118002921513186,0.949757094627646,0.00603569808168683,0.10691404601013,-0.0393716335321506,-0.00517494688758232,0.374229511955183,-0.764763557289586
542,542,-0.0193086023190598,0.119648143881576,0.94934276070131,0.00262707262062193,0.11747251089259,-0.044811846516582,-0.0859516089270211,0.192810904795075,-0.643665393465959
543,543,-0.0196341111166283,0.121385758375828,0.948904929224647,-0.000666373184768389,0.125032423546942,-0.0483844187697829,-0.334708228402366,0.393635120382569,-0.321157849768883
544,544,-0.0199724186027887,0.123052385752402,0.948521692148077,-0.00422351611389017,0.127791828534857,-0.0498208976294094,-0.293842520981436,0.315106631953418,-0.462189829112927
545,545,-0.0202670443920384,0.124484488335039,0.948271508285579,-0.00765003813852624,0.124260584318715,-0.0503277694361183,-0.198063113875921,0.424878386871492,-0.0639886435190237
546,546,-0.0205373338833605,0.125745841467136,0.948209445638072,-0.00971063666598786,0.111632409967926,-0.0459129431155924,-0.144141701645861,0.336481320634075,0.19820981660087
547,547,-0.020820692613683,0.126945213369498,0.948285523566951,-0.0109300529864455,0.0920519901252786,-0.0373156988436721,-0.32423967218736,-0.12003241349682,0.447461475505567
548,548,-0.0210879743253669,0.127986327781791,0.948420137738101,-0.0111219144378845,0.0676209763637888,-0.0268870394152004,-0.334761733852023,-0.341016187988927,0.720473369802444
549,549,-0.0213102863983333,0.12877256810336,0.948532366907843,-0.00957846530968748,0.0431749035799323,-0.0181039136162127,-0.350705736693206,-0.486664513290894,0.679129058924622
550,550,-0.0214590024929844,0.12920678920534,0.948540044893081,-0.00529204331097319,0.026721693993628,-0.013928389276613,-0.513043551520569,-0.659943270370377,0.101758434377907
551,551,-0.0214790363238917,0.129082499749102,0.948407434576816,0.00267195710419476,0.0169210302681848,-0.0176066733802423,-0.534249648328863,-0.467705825570517,-0.554713984304355
552,552,-0.0213902124275591,0.128462525486895,0.948190389918694,0.0121547592830616,0.0103054741942523,-0.027590331182669,-0.188546006513972,-0.0847620810095893,-0.914647662475979
553,553,-0.0212762197172466,0.127654008345064,0.947943138709805,0.0195258481874159,0.00483833248031046,-0.0392430902645559,-0.162569344283454,0.462847150227869,-0.92935692622447
554,554,-0.0212203282234209,0.126965197774412,0.94771918742777,0.0221600496246109,-0.00313023328158246,-0.0479452675673665,-0.0741430611916704,1.06894460642007,-0.697044192652897
555,555,-0.0213053737283964,0.1267055029519,0.947570972469639,0.0150819740130406,-0.0058311226804849,-0.0493195715305329,-0.0667161603471588,0.97553495082488,-0.236899918735415
556,556,-0.0215729957679733,0.126943311812462,0.94748709756132,-0.00420071641178989,0.00299780626947114,-0.0414899850084095,0.311828567869046,0.120525603770201,0.217510326133833
557,557,-0.0219683575026359,0.127472200731,0.947433093226794,-0.0327914188752311,0.0254870245044871,-0.0277908229087537,1.03281138875121,-1.08204822579726,0.688162329993184
558,558,-0.0224289555005481,0.128191397480096,0.947424851841919,-0.0638538056575369,0.0531201995508074,-0.0110961660078298,1.65046334627002,-1.63926041180262,0.927762571901726
559,559,-0.0228915939224993,0.12900149444386,0.947477012860062,-0.0909238167235586,0.0713279401081955,0.00647420142500904,1.53708898405155,-1.47856937387359,1.14764995655743
560,560,-0.0232923141169978,0.129804203551248,0.947603135531507,-0.105451341007228,0.0744469889817774,0.0226644888066607,1.02146444827362,-1.26464808585797,1.37833751595892
561,561,-0.0236890295851862,0.130673099184829,0.947817032702238,-0.101562002304027,0.0612850390470623,0.0388371386013273,0.353394467789474,-1.07008425094728,1.57593453703542
562,562,-0.0241233571634647,0.131677001263498,0.948107801195229,-0.0824889779625886,0.0415005006754071,0.0562081498885637,-0.388249274470504,-1.42688278531554,1.55638841354368
563,563,-0.0245063901577519,0.13270972962598,0.948450187189481,-0.0547217081086737,0.0226057347222932,0.0718766477636306,-0.888984844652227,-1.72541511345601,1.34722970059217
564,564,-0.0247493496688943,0.133663175228677,0.948817760492449,-0.028215150649267,0.00928316903635807,0.0840788064618392,-1.08363131505858,-1.98607014853891,1.11801487503083
565,565,-0.0247636660437346,0.134427649789955,0.949183428267735,-0.0111783473234236,0.00196045873049626,0.0908939050954593,-0.879274485217679,-1.9321996884848,0.96151130220356
566,566,-0.0244290133961693,0.134964953711587,0.949574483980971,-0.00416936388447054,0.00196611851389821,0.092027297936336,-0.786572090603529,-1.95088881077483,0.419292948354814
567,567,-0.0238043953462646,0.135346723174862,0.950006407846771,-0.0032375144303075,0.00465064890312254,0.0887783955269749,-0.527764644840826,-1.91710980541152,-0.148344388930577
568,568,-0.0230704579387982,0.135627288176204,0.950434861393466,-0.00617002279702887,0.00961252048555289,0.0823451904238565,-0.0606531429211999,-1.99079287574131,-0.400696854577697
569,569,-0.0224077871636017,0.135861065756594,0.950816222430061,-0.0102694251683407,0.0144570987547315,0.0738248826118625,0.298253469559304,-1.97981150288663,-0.557060844960057
570,570,-0.0219967883509524,0.136102705577578,0.951107424278782,-0.0118586987146642,0.0171308440449762,0.0644632032549794,0.334891345540697,-1.87085778941059,-0.679431004088788
571,571,-0.0219098218243907,0.13643155229568,0.951304743431793,-0.00953091105468313,0.0156826971961132,0.0530901435204678,0.241131967696275,-1.69709965879416,-0.753940831840283
572,572,-0.0220272964293341,0.136811534349555,0.951439666496421,-0.00491392472159004,0.0114742079625351,0.0390459414591197,0.20361130392554,-1.21605774047046,-0.925942218745895
573,573,-0.0222413238857246,0.137124339627639,0.951521680470941,0.000776548994201443,0.00487475265678312,0.0242857590393243,0.039257774123361,-0.69300426486399,-1.03559828885539
574,574,-0.0224436282454836,0.137251105119928,0.951559057290276,0.0060557502477254,-0.00382924338118905,0.0108591587318368,-0.0385198624008719,-0.289945065832787,-1.02274899801027
575,575,-0.0225255374951003,0.137072103697901,0.951558426230744,0.00915922446866689,-0.013343568514401,0.000937974289314249,-0.173406563221203,-0.0208639818497545,-0.826661413232859
576,576,-0.0224457728442249,0.136525792534742,0.951505590632287,0.00980791318585933,-0.0253165618226039,-0.00552469476941563,-0.148809262045543,0.151594237392014,-0.614124269689571
577,577,-0.022276861950316,0.135691750643914,0.95139744583664,0.00837158254472489,-0.0395909124330311,-0.0100394303710567,0.0405431584737677,0.187298858223119,-0.431551103381387
578,578,-0.0220806180482949,0.134661007810535,0.951255333564656,0.0058480675267751,-0.0549790438743093,-0.0129715649187811,0.180536709128756,0.148688881697582,-0.257777051515907
579,579,-0.0219187949536842,0.133524380601975,0.951099776660126,0.00292463628092498,-0.0694280224583089,-0.0147814703117317,0.30694061862554,-0.011727777029791,-0.0849706141625694
580,580,-0.0218530086644633,0.132372570874186,0.950950520277769,-0.00137338975410079,-0.0791754346260946,-0.0157540019459625,0.212677527108516,-0.38257960429308,-0.0249214997831224
581,581,-0.0219336237797597,0.131147617253535,0.950808250568859,-0.00748307682411083,-0.0869468531043538,-0.0143662030546614,0.186797152003841,-0.610309512082211,0.13645523379642
582,582,-0.0221194051223951,0.129787884996462,0.950659142007372,-0.0136159575927234,-0.0941571718088996,-0.0118987830577919,-0.0964688865611695,-0.74117494717215,-0.025452031978273
583,583,-0.0223343671968019,0.128379184400242,0.950500815329598,-0.0151860071167994,-0.100639258165985,-0.00915970335567015,-0.255300413719577,-0.72558752688882,0.0449789272176426
584,584,-0.0225025444932531,0.127008045508428,0.950331163266718,-0.0148168791505781,-0.105554590694723,-0.0075955448887568,-0.223925677801856,-0.504817703451938,0.120082168421944
585,585,-0.022548055081051,0.125761639247522,0.950148400261894,-0.0119216265674114,-0.106642908771979,-0.00844487275754083,-0.232663029635074,-0.403317797539824,0.298704190773777
586,586,-0.0224629404666346,0.124600190986496,0.94995913614426,-0.00437104165232627,-0.10505470646411,-0.012705709175318,-0.473137146035685,-0.250668822101233,0.152515964011166
587,587,-0.0222976666571007,0.123466126074955,0.949765604860642,0.00774081440623181,-0.105439227985954,-0.0190850199792541,-0.846776370526872,-0.0256698765603241,-0.351806673173526
588,588,-0.0220639969915817,0.122420722424443,0.949558997099039,0.021825296594178,-0.106784671419174,-0.026372682364736,-1.02285621613522,0.107817251525682,-0.927224633258403
589,589,-0.0217736106861047,0.121525759833149,0.949329566166973,0.0361012169001812,-0.10489739444941,-0.0332725797309137,-1.14763642432875,0.267015340574074,-1.00746460135034
590,590,-0.0214381505620709,0.120843560995729,0.949066766487824,0.0445059734890044,-0.0951569125724802,-0.0377587379212519,-0.667714923355846,0.409446758717855,-0.771760069055669
591,591,-0.0209992032766114,0.120433715030476,0.948749060446757,0.0436714322847174,-0.0743661458247486,-0.0399037129879593,0.0244755834537999,0.793042582829764,-0.0473294363609931
592,592,-0.020449059867079,0.120257133683208,0.948383700974705,0.0381039688939106,-0.0502295380724615,-0.0408084644402048,0.246707081455785,0.981924101684801,0.445195820457416
593,593,-0.0198754755390341,0.120227320067479,0.948002535938429,0.0261967075563598,-0.0269802282991675,-0.0408303321754633,0.324842432446756,0.587425769108054,0.302569982316721
594,594,-0.0193661018489171,0.120256249882999,0.947636656131915,0.0128298077054756,-0.000318306874769109,-0.0410786884969571,0.573608525520551,-0.202350066990352,-0.0884606907060938
595,595,-0.0190084596711497,0.120254509430041,0.947316242597205,0.00463330495996482,0.0195972827294596,-0.0413172704066918,0.165243443924443,-0.607796556733133,-0.276362260027901
596,596,-0.0188374852675196,0.12026774428156,0.947017523432423,0.00891922137531954,0.0270279276072918,-0.0427998793267824,-0.36885897430923,-0.322244786937082,-0.52170662733984
597,597,-0.0187954437108276,0.120354444301419,0.946720009561081,0.0205893367620861,0.0252098492037512,-0.0451624373341605,-0.646139830541412,0.0477641817407779,-0.513674991181149
598,598,-0.0188304673208927,0.120443793067901,0.946457950115811,0.0315330244971411,0.0166626831864405,-0.046642565973496,-0.256664118214748,0.674015685389372,-0.185797188347105
599,599,-0.0188900740767845,0.120465119208613,0.946265144080593,0.0358479807702525,0.00490583897415121,-0.0456425006467803,0.573264260406701,1.04868799380048,0.258759253012636
600,600,-0.0189211154730469,0.120347816269929,0.946174866673432,0.0307876521169976,-0.00478686841208935,-0.0399096604036146,1.04618496972524,1.31164144919241,0.549737309676622
601,601,-0.0189504336401483,0.120050917971595,0.94620278135306,0.0160382534565026,-0.00706865974216775,-0.025989049285341,1.16297273938117,1.45082764638859,0.897453097748201
602,602,-0.0190127472944792,0.119621731726724,0.946325923528828,-0.00448949758578575,-0.00450884683949826,-0.00573808957297175,1.05223919947176,1.48307335218674,1.31712619851393
603,603,-0.0190662857452207,0.119121620279772,0.946518730112949,-0.0257649127677241,0.000135920431523272,0.0162038469148446,0.80414301943162,1.33531564701819,1.59113826080829
604,604,-0.0190694083267767,0.118611298429851,0.946755030256012,-0.0418462013365797,0.00454573019720913,0.0358340487812849,0.603120760748372,1.09012073360308,1.63235671500408
605,605,-0.0189806387973231,0.118151017272675,0.947008243920715,-0.0482676192844304,0.00732111804519255,0.0486590127275656,0.319184363266201,1.04426161584966,1.42264594299299
606,606,-0.0187827947354911,0.117722151983048,0.947309580279509,-0.0452858843815451,0.00729405712611435,0.0538442944582151,0.140927523006748,1.1067210607376,0.98302406353277
607,607,-0.018503383891411,0.117283792751855,0.947675261243803,-0.0353156327682726,0.00558373959750506,0.0545261888892746,-0.0654234149321052,1.32488186384479,0.274597053691167
608,608,-0.0181680648128765,0.116863020313283,0.948056071740973,-0.0227820347302738,0.00343448399293006,0.051412174283744,0.0651756141572269,1.59307307945592,-0.318823246092911
609,609,-0.017802495128153,0.116487355972505,0.948402923519687,-0.0113929848802422,0.00163399432891021,0.0458319409967458,0.284301945215064,1.79229937428598,-0.689697048732388
610,610,-0.0174323336700916,0.116184505383177,0.94866702839522,-0.0027786563944109,0.00055553587454495,0.0395919091859587,0.315658565577834,1.69102907980117,-0.861285476304595
611,611,-0.0170416495899996,0.115900191140066,0.948849673157673,0.00415938250968171,8.88503210840775e-05,0.0320294048986077,0.409324417266469,1.48524732644295,-0.801268949535319
612,612,-0.0166137201236074,0.115616811259492,0.948984366013794,0.0114484511443182,0.000897154480298576,0.0222163213650744,0.431580395211863,1.11168821224064,-0.735574695413078
613,613,-0.0161729974234123,0.115416806135188,0.949070920326866,0.019037196409919,0.00386226480157376,0.0117486036476486,0.347939723462047,0.806152067410308,-0.741160478964741
614,614,-0.0157438159718563,0.115382341256745,0.949108608046083,0.0256016607365689,0.00928274358844369,0.00213128788406672,0.221362790244277,0.630514123710587,-0.669851042699028
615,615,-0.015350313904157,0.115595335853889,0.949095808769981,0.030102171593133,0.0163531618622443,-0.00525772969585319,0.154274340857404,0.562250183994851,-0.563512095887862
616,616,-0.0149903574871803,0.116102620892567,0.949011079914942,0.0332393070047922,0.0267292944635314,-0.0106030055376528,0.133666595131464,0.493341447507676,-0.45271250014666
617,617,-0.0146481612288776,0.116849476568727,0.948856716853664,0.0362279209097873,0.0392476043744228,-0.0148701037914781,0.0612534169989555,0.54870500097255,-0.358238715983448
618,618,-0.0143270956387482,0.117765366133842,0.948665478756579,0.0382584418762492,0.0525513730758193,-0.0179868826296182,0.117296872294334,0.561650056438641,-0.220468664615394
619,619,-0.0140304085068357,0.118779840427598,0.948469432664718,0.0404780228238652,0.0643965898939044,-0.0198755541532518,0.0603818429479659,0.464939113024401,-0.187209858057789
620,620,-0.0137612435990903,0.119822554903665,0.94829995007056,0.0410458595644351,0.0724850872723188,-0.0205549109809411,0.0890283201075314,0.308289668920051,-0.0530188780979141
621,621,-0.0135130704857772,0.120951123745129,0.948129626030372,0.0401675202082255,0.0774377314282311,-0.0199837680420735,0.0291602200589047,0.167480051753987,0.0111695410444634
622,622,-0.0132838202752207,0.122212722889414,0.947937218324994,0.0399612131842878,0.0815383968879231,-0.0173667939376677,-0.341303930435552,0.140802740419355,0.272373692354064
623,623,-0.0130831441780576,0.123521083067111,0.947762859405443,0.0382143494631885,0.0845504201379653,-0.0138317695691329,-0.372015389094155,0.0469881108429373,0.00538398401148844
624,624,-0.0129205138441098,0.124789521187024,0.947646678071731,0.0358087342603937,0.0862184602818472,-0.0102701952619284,-0.323917204767015,0.055617885511993,0.327572727154891
625,625,-0.0128052331548331,0.125930988370141,0.947628857836866,0.0322071812136861,0.0862228913249124,-0.00611393076529344,-0.264905608071293,0.134703795045198,0.497066764401346
626,626,-0.0128003390249659,0.126956122393807,0.947757173496222,0.0256524448254884,0.0847981586973216,0.000417676535517681,-0.182897225442678,0.346289685208105,0.587216615057261
627,627,-0.0128991651974777,0.127922406189181,0.948004845766342,0.0152680863068661,0.0818194585781602,0.00960689001970906,-0.171067361437802,0.381605505012697,0.761881690605153
628,628,-0.0130065494623938,0.128812814583169,0.948300522724313,0.00636243319461659,0.0779774340160719,0.0188805470944799,-0.059874878323216,0.399191307803983,0.682762061058137
629,629,-0.013027564609062,0.129610212177315,0.94857318580536,0.00100271646732894,0.0750014988953917,0.0255486022452371,-0.163941363334748,0.35512635232462,0.380697072039864
630,630,-0.0128675169300074,0.130297132308438,0.948752275434514,0.00251667125319377,0.0740368755307094,0.0269140438527245,-0.371137162468389,0.315519843361327,0.00638364034100321
631,631,-0.0124407492601008,0.130856978827786,0.94883256340797,0.0131407263174825,0.0710903303837144,0.0205433953067138,-0.64610983786472,0.437877522765563,-0.575103935751508
632,632,-0.0118107054576722,0.131299695779698,0.948863376749523,0.0303087650237663,0.0659592989590881,0.0080321242816283,-0.717859881104861,0.480707232433599,-0.984586424970891
633,633,-0.0111064621362178,0.131647628327541,0.948855980217235,0.0480188177507092,0.0574808455756155,-0.00706060743050339,-0.512535070716609,0.533405821263468,-1.291079507487
634,634,-0.01045699063389,0.13192384902087,0.948820906970705,0.0600972094868257,0.047402219289963,-0.0211233050632603,-0.232074078352514,0.616482718902618,-1.33653620781504
635,635,-0.00999117222913934,0.132152273439277,0.948767837312619,0.0630662749891873,0.0385945612336351,-0.0308276250620569,0.0307785941139231,0.492216810961625,-1.31066959028108
636,636,-0.00972297110084079,0.132276174090599,0.948667559886214,0.0524599724872759,0.0309453866836684,-0.0367913661066238,0.385712294235311,0.116900363163339,-1.03753824500374
637,637,-0.00956728434024047,0.132278046128549,0.948515511663537,0.031194788081165,0.0218223915468941,-0.0408372017988169,0.530832006460685,-0.0216646248384337,-0.665416557941032
638,638,-0.00950394349580412,0.132242885061439,0.948356917509066,0.00291666901903927,0.0131565799984696,-0.0417150151170093,0.583830393394027,-0.318143606116859,-0.338020558896851
639,639,-0.00951198339782406,0.132257937588778,0.948235878401601,-0.0258656586383657,0.00722314570515151,-0.0397481007398105,0.658730639777345,-0.737428117600819,0.128453198992421
640,640,-0.00956955108779515,0.132412564341217,0.948195251741013,-0.0475437966306718,0.00486883271284459,-0.0348286426215696,0.754463604876534,-1.0805324326562,0.690385267239156
641,641,-0.00972297574051163,0.132709560570634,0.948232021417878,-0.0589284132248525,0.00462734331608995,-0.0249548430754465,0.650952111634079,-1.47819639792524,1.02001469238277
642,642,-0.0099860995638559,0.133093492270538,0.948317837599767,-0.0624296357808267,0.00659824957417323,-0.00998421388576556,0.282621814116642,-1.69013124700218,0.845133005132217
643,643,-0.0102877076999624,0.133566499772132,0.948454807761616,-0.0606958542844838,0.0109900295355743,0.00692303521471968,0.0928909474673295,-1.90223195893085,0.984437770160336
644,644,-0.0105565510719271,0.134128920036259,0.94864284869237,-0.0553725634862795,0.0161632160517743,0.022382383565466,-0.0890388333981864,-1.96060607749095,0.935029446918916
645,645,-0.0107213685633201,0.134779374549853,0.948880143745133,-0.0512695754290625,0.0222797976747236,0.0342826395952903,-0.146724148092561,-1.83217448495408,1.15344007031553
646,646,-0.0107634433483217,0.13557848371336,0.949189723121751,-0.0450929281300667,0.0271788811041174,0.0428668616215943,-0.33410356824295,-1.62317603139647,1.01888182640778
647,647,-0.0107301992272976,0.136526672876371,0.949568907289817,-0.0374225178802938,0.0305822320476219,0.0496265476109774,-0.311790611322101,-1.40089538247206,0.70254255542319
648,648,-0.0106494956901911,0.137530569557197,0.949976479907722,-0.0304630175410308,0.0329111754526428,0.0539212429662122,-0.137230035596811,-1.36871223044138,0.379028639136053
649,649,-0.0105489381814308,0.138496189150699,0.950371493563446,-0.0241875113870063,0.0353615490649254,0.0559158574308361,-0.0626305278099361,-1.51911982615204,0.000457095399406445
650,650,-0.0104558155867893,0.139329354452498,0.950713547107552,-0.0183551485857854,0.0361277550425489,0.0560780778468205,0.0557721828479927,-1.56079088400335,-0.193463803960768
651,651,-0.0104072529450613,0.140098400424893,0.95101735339102,-0.00987777991546896,0.0357186157490562,0.0545539010075456,0.160259214222179,-1.72970506407228,-0.185484042446749
652,652,-0.0103851234048298,0.140865292747833,0.951310169849761,0.00106983636690544,0.0362424246871249,0.051507300066177,0.117041775286706,-1.66286614691342,-0.0995648755514253
653,653,-0.0103336620974407,0.141526717687122,0.951571322670679,0.0130031694767851,0.0355659628919748,0.0473636770313034,-0.0213697418446866,-1.49036468760294,-0.0740145601635243
654,654,-0.010196999981948,0.14197936532941,0.951779998194572,0.0241561825600222,0.0304403234549713,0.0425226449103375,-0.167794063384517,-1.01187291166495,-0.117448914100781
655,655,-0.00991905940721332,0.142119626436379,0.951914682380541,0.0332128118309235,0.0207552943406099,0.0371158258923014,-0.217136515599265,-0.545227504789432,-0.226226166878514
656,656,-0.00941652351447528,0.141893514784549,0.951963809586012,0.0406809472977611,0.0047977122312146,0.0305276572719282,-0.19592436841719,-0.208603278439728,-0.360559335707783
657,657,-0.00872683247155394,0.141370898683804,0.951944530215673,0.046993481920172,-0.0158404722528033,0.0225243625599583,-0.0555704675038082,-0.142987013759956,-0.476931567388818
658,658,-0.00797485145273543,0.140633227894915,0.951876790836019,0.0513717701428028,-0.0383027683344909,0.0138341375669868,0.08776380830224,-0.142532802349693,-0.587242995127702
659,659,-0.00728545247009233,0.139761272628485,0.951779214918562,0.0523963118458761,-0.0582792214029679,0.00523732072695166,0.300381048240686,-0.272667782319603,-0.656109892203942
660,660,-0.00678351916231205,0.138835095155336,0.951668992870936,0.0502927232475448,-0.0727013214581719,-0.00232543703993019,0.321755060694908,-0.290772281940985,-0.723809515142362
661,661,-0.00648038538640787,0.137793659179071,0.951533461034872,0.0441471802412842,-0.0806848067461854,-0.00966732049912641,0.400122328271335,-0.429199050276373,-0.746295020979782
662,662,-0.00629282655357911,0.136582826462589,0.951361171257885,0.0346006666043717,-0.083957229317659,-0.0175266283753375,0.318996193719077,-0.435174798205341,-0.628744406952828
663,663,-0.00620382771872034,0.135292718002731,0.95116955863556,0.0232005734938467,-0.0845553812526138,-0.0246723689278166,0.194371515956906,-0.42911492048391,-0.55462969905536
664,664,-0.00619628496635347,0.134013670217755,0.950975419231897,0.0116167768449933,-0.0863383034073221,-0.0297389637137246,-0.183928548237303,-0.285616522574553,-0.221565807390221
665,665,-0.00625301416952514,0.132836232561028,0.950795019477895,0.00159930090555552,-0.0885224822505678,-0.0312728878072597,-0.330630740521364,-0.323810976453276,-0.654866528461487
666,666,-0.00646373848604426,0.131768420588419,0.950625375624794,-0.00431599784549956,-0.0918278874521316,-0.0288640343736176,-0.34951862704845,-0.116759424086728,-0.210757810533329
667,667,-0.00683970885825421,0.130749661510441,0.950454200758587,-0.00995302801403598,-0.0912964873682967,-0.0228023212029101,-0.43797055519194,-0.406193074302814,0.255300652271696
