,Frame,CoM pos x,CoM pos y,CoM pos z,CoM vel x,CoM vel y,CoM vel z,CoM acc x,CoM acc y,CoM acc z
0,0,13.5769750858193,1.17253447024029,0.951937308577892,-0.0205323677189867,-0.00087513585108834,0.00532779452195561,0.0786765916692826,0.193171898852222,0.0181501377509775
1,1,13.5766985977164,1.17255056009182,0.951938096368168,-0.022853511040822,0.00148784835222615,0.00475503744347995,0.104995520213754,0.21022263627311,-0.0315985672047356
2,2,13.5764175087019,1.17257087328632,0.951939043636744,-0.024849300547441,0.00300785092373212,0.00403813965614648,0.0776693393276419,0.204797784833355,-0.0994151994806054
3,3,13.5761282822404,1.17259990178148,0.951941541900823,-0.0263447735878704,0.00324106674423222,0.00296885546054659,-0.0388014821171475,0.168235402302356,-0.110203241930176
4,4,13.5758246280736,1.17264171296844,0.951946146010682,-0.0277232094137456,0.00398446173341556,0.0014832604347551,-0.0912571361970672,0.0472609470948582,-0.123094630514451
5,5,13.5755118503263,1.17268957007266,0.951950789096582,-0.0289543685433026,0.00422377217726005,-0.00012078352889387,-0.136126960924904,0.0279804776258116,-0.115440116892156
6,6,13.5751952518204,1.17273674678531,0.951953389836348,-0.0299380744716784,0.00440550434566353,-0.00158093855919532,-0.173397875457042,0.0118969743581315,-0.132935866160009
7,7,13.5748801338728,1.17277652622211,0.951951849295767,-0.0308993731593675,0.00449781481417677,-0.00262552385764615,-0.1283990655862,0.0542493569236346,-0.112804006067715
8,8,13.5745766554886,1.17280160897853,0.951945081889709,-0.0317903416480118,0.00459018840996455,-0.00324812768539178,-0.0969807066364373,0.0377041248807843,-0.093730984240592
9,9,13.5742812817358,1.17281648526312,0.951934487543677,-0.0327651316819,0.00438897520430727,-0.00364379079212114,-0.11133817879584,0.0492359499666375,-0.0764868205536256
10,10,13.5739787721563,1.17283212257384,0.951921676172783,-0.0338734773058413,0.00407306955018223,-0.00376366931447003,-0.0982454137014829,0.03622356918448,-0.0454068193663031
11,11,13.5736538862642,1.17285948341902,0.951908247596286,-0.0347291547445876,0.004281568358721,-0.0036541980632084,-0.100315116831547,0.00859766249579205,-0.0103458087641997
12,12,13.5732913833106,1.17290952648845,0.951895793436584,-0.0362405557181723,0.00509306436777129,-0.00329880576814748,-0.108293331401008,0.0860163845115368,0.0415454926441106
13,13,13.5728751381937,1.17297946364156,0.95188416117305,-0.0385691285371563,0.00648745726559498,-0.00260332946204933,-0.147122602472827,0.0857615249403584,0.0681953619613339
14,14,13.572415311033,1.173061985051,0.951872272895473,-0.0418278179694065,0.00911376186085444,-0.00159969047112247,-0.121661903890334,0.122085537673101,0.0972341218967922
15,15,13.571936087879,1.17316126431656,0.951860334781005,-0.0448703778184801,0.0123520094544067,-0.0004362933426621,-0.0641652638020633,0.124026486692406,0.0810057858086922
16,16,13.5714616534018,1.17328147330643,0.951848559060108,-0.0470171975941117,0.0150576682288803,0.000767497134921186,-0.0208684684327827,0.128467272685879,0.104511847753602
17,17,13.5710161917176,1.17342678399952,0.951837162389656,-0.0477527419097752,0.0169903251943107,0.00183676292200422,0.0613021219341871,0.147759799863447,0.100207724434056
18,18,13.5706029449563,1.17360821093334,0.951826500476946,-0.0465435135851108,0.0180573077758911,0.00285983302267215,0.00440334297511419,0.133558883320118,0.111913964638682
19,19,13.5702057887157,1.17382297128432,0.9518164425342,-0.0436999562615399,0.0190166574329309,0.00394713094022487,-0.0642190148205362,0.10418456028818,0.0798882760318804
20,20,13.5698198606671,1.17405454872172,0.951806474780739,-0.0398893223441021,0.0199301733144775,0.00500087001675562,-0.101760378661873,0.118189249499761,0.113460232816418
21,21,13.5694403018571,1.17428643163604,0.95179607596189,-0.0362522114320976,0.0210116165954641,0.00582744495674176,-0.121425448775138,0.0813074841902478,0.122902422295591
22,22,13.5690622561369,1.17450211057294,0.95178471669667,-0.0342549910487903,0.0215387438254331,0.00632495216879321,-0.116554658887862,0.0466885444004989,0.105442460045498
23,23,13.5686886104809,1.17470614020498,0.951771858589377,-0.0346427480630238,0.0208708778489389,0.00639867797359727,-0.0391862831184376,0.079002794176129,0.0202273964194264
24,24,13.5683226143994,1.17490954201909,0.951757853418558,-0.0355985755528062,0.0197959233062859,0.00613407540304716,-0.0392714208029419,0.076278026652522,0.0247483726274102
25,25,13.5679599523643,1.17510550182338,0.951743501361613,-0.0369672024002472,0.0188173996857126,0.00563615188172754,0.0247543490659685,-0.00248035790318994,0.0237698625541077
26,26,13.5675963020746,1.1752872007176,0.951729601894132,-0.0383244653069028,0.0171719855449006,0.00507551248522103,0.145076891889715,-0.00438891161239194,0.0060751653256929
27,27,13.5672273345371,1.17544781587586,0.951716953641926,-0.0387778242821363,0.0149906933584249,0.00461233155996069,0.0752007037214948,-0.0725257292868529,-0.0396186807634529
28,28,13.566850621106,1.17557939413728,0.951706060381935,-0.0383082312256723,0.0139874831546425,0.00420372050467227,0.0338280936220468,-0.148341566245456,-0.000214123004818159
29,29,13.5664690438084,1.17568648480094,0.951696386774496,-0.0377018416797328,0.0121374087417556,0.00376708676769165,0.0557641417650552,-0.123109237570477,-0.0251106685092263
30,30,13.5660862361735,1.17578101423093,0.951687173671137,-0.0368288830570214,0.0106712592709083,0.00330873692629874,0.0535059218937273,-0.125946467456466,-0.0157267281992669
31,31,13.5657058325195,1.1758749067088,0.95167766388532,-0.0355431150340623,0.00965711079946034,0.00282083677347044,0.00551310536732411,-0.154918353651768,-0.00232068371430876
32,32,13.565331467586,1.17598008408283,0.951667102289753,-0.0347367165439328,0.00842893228717683,0.00230471751725018,0.0112493500551142,-0.0624836620593975,-0.0445326101361739
33,33,13.5649582049107,1.17610585282949,0.951655205027822,-0.0341964667306463,0.00727556056587418,0.00169583785365198,0.054405249826183,-0.0547023656961838,-0.113075988761846
34,34,13.5645836192469,1.17624425820122,0.951642480202954,-0.0335716707429225,0.00723337088606156,0.00095335833466652,0.0613983755795144,-0.0963991979157101,-0.0851835392455813
35,35,13.5642151121921,1.17638132936142,0.951629359448974,-0.0326492711973994,0.00726635484189078,0.000226034737814399,0.0736183477463688,-0.101671472562575,-0.0707770942393495
36,36,13.563860085993,1.17650309813848,0.951616270246243,-0.0315897490079977,0.00747236834516226,-0.000408092863518145,0.0929540198693374,-0.162557523644882,-0.0379030926705601
37,37,13.5635259437381,1.17659559929671,0.951603636036027,-0.0306405533271324,0.00659511490783043,-0.000830761522851948,0.125517369346236,-0.103792435737374,-0.00428640146754643
38,38,13.5632125944537,1.17665795710639,0.951591143866626,-0.0295604439063375,0.00539345921182594,-0.000972254561432024,0.141876014964978,-0.131875574192447,0.0157223011037694
39,39,13.562915101388,1.17669948084662,0.951578507385972,-0.0280434780800847,0.00388968290542456,-0.000883053480231824,0.100871580083961,-0.109771994883451,0.0234525546147466
40,40,13.5626335991149,1.17672148307845,0.951566187118398,-0.0268173226684451,0.00162116190407956,-0.000702166133547347,0.121896608241805,-0.0773937227522386,-0.00403817717897937
41,41,13.5623682220908,1.17672527466504,0.951554643312522,-0.0255674301206856,-0.00020793058714139,-0.000524603021461181,0.108196590957085,-0.125589277160619,-0.0428488161167652
42,42,13.562119104847,1.17671216515595,0.951544336002327,-0.0240081781765668,-0.00175106746360321,-0.00047400962373718,0.0763230612595832,-0.105230539330503,-0.0352937613622982
43,43,13.5618786430745,1.17667588741025,0.951531941622231,-0.022536049226798,-0.00317990614022122,-0.0005639951176318,0.146295730185903,-0.0974317770399439,-0.0405907463525033
44,44,13.5616467457064,1.17661556212091,0.951517151024702,-0.0206126092919855,-0.00417667887197273,-0.000723861021506121,0.153096931585584,-0.0900284162501438,-0.0684479522533527
45,45,13.5614348179923,1.17654058316286,0.951504945133238,-0.0183666783496298,-0.00521384050842923,-0.000907200297999497,0.109647853300023,-0.108765786303314,-0.0283650376762646
46,46,13.5612542659265,1.1764603492405,0.951500303154199,-0.0161557953779172,-0.0064413511709369,-0.00109237565450065,0.0713777698155837,-0.0844498018001842,-0.0246156357779527
47,47,13.5611164957,1.17638426034051,0.951508205997023,-0.014361482185294,-0.00781456920078772,-0.001253018641998,0.0712456622566965,-0.0975746559757012,-0.0295574256799221
48,48,13.5610626473135,1.17632719454716,0.951533748316867,-0.0134033391556461,-0.00923109495352679,-0.00136644951570124,0.0726674841668896,-0.0869519422147605,0.0100861419119919
49,49,13.5610851159907,1.17628287373377,0.951573651075072,-0.0130238986824838,-0.0107371590379333,-0.00145098849460251,0.0654853856854864,-0.0695034191946099,0.0538931067828086
50,50,13.5611221910128,1.17622896047401,0.951620301581482,-0.0137348418835003,-0.0121361093538316,-0.00160262376587999,0.0896517549028945,-0.0605150142735047,-0.00811134789911036
51,51,13.561112161857,1.17614312863464,0.951666014181469,-0.014895060170877,-0.013439446369096,-0.00172714243089826,0.0560633517836409,-0.08861199244805,-0.0843639247191937
52,52,13.5609933152361,1.17600307500179,0.951703048198441,-0.0155682435971662,-0.0158677585394728,-0.00191387841912962,0.0247291218310175,-0.0998273596290942,-0.204955855145541
53,53,13.5607312602799,1.17579133425238,0.951731507744266,-0.0173497543934006,-0.018764024387392,-0.00270771529024157,-0.0130113075731301,-0.080144892009458,-0.202814688163476
54,54,13.5603671204646,1.17552282319355,0.951756527716629,-0.0223076679635927,-0.0210434277244318,-0.00407146397146778,-0.14637336530043,-0.158963918149723,-0.186461042314152
55,55,13.5599524521356,1.17522382665981,0.95177793149644,-0.027973219983462,-0.0236364387440336,-0.00537456717817326,-0.146162552789118,-0.133680343830861,-0.127484824646792
56,56,13.5595388208831,1.17492060071095,0.951795556410301,-0.0334238393412802,-0.0246219823440933,-0.00612242604730117,-0.214806593978949,-0.105325398799245,-0.0135924692206516
57,57,13.5591778087502,1.17463936620929,0.951809240310059,-0.0376116115148001,-0.0246551628191623,-0.00595093277342546,-0.204882605381989,-0.0481069647463903,0.025182050691614
58,58,13.5589064779007,1.17435475046204,0.951811803746634,-0.0400088096849935,-0.0230346779026588,-0.00473898447875833,-0.206380144669048,0.02618666296323,0.107444249281367
59,59,13.5586904560278,1.17404933480549,0.951803561726563,-0.0403771113391896,-0.0187466528273703,-0.00279329562059152,-0.204743090901716,0.0990292210977327,0.156960159362113
60,60,13.5584741875868,1.17376119017504,0.951795454067094,-0.0385099669708793,-0.0128796205215531,-0.000470868848931156,-0.402140523678068,0.220329856464125,0.191552215859848
61,61,13.558202102565,1.17352828719288,0.951798203009253,-0.0363254481060988,-0.0061323917347573,0.0018946243812681,-0.597275279332215,0.301492438008039,0.176404146078036
62,62,13.5578186144128,1.17338851777061,0.951822350091502,-0.0361151661996,-0.000194180673844473,0.00388979998869487,-0.659222132880637,0.395986813140016,0.178335258643448
63,63,13.5573387763533,1.17334612533614,0.951877728371646,-0.0387968029677172,0.004308494327244,0.00591488196022793,-0.612088358848375,0.565665715109229,0.164280625582944
64,64,13.5567996629026,1.17337577269691,0.951957213965031,-0.0435679979639602,0.00936017894471823,0.00821233526704088,-0.637415827640255,0.614133248567615,0.158850337589579
65,65,13.5561787027305,1.17347099472907,0.952045871305301,-0.0503410839646284,0.0144977831399265,0.0103420046222474,-0.745840887159839,0.640394002874916,0.209665585241448
66,66,13.5554533152921,1.17362534558356,0.952128740264428,-0.058664456994334,0.0188329799371464,0.011879261905836,-0.769523570771534,0.632438059091652,0.148766151031171
67,67,13.5546009123686,1.17383237880231,0.952190794771242,-0.0675466204253338,0.023458925483453,0.0122939433893444,-0.708423128232876,0.567162406814414,0.113270985421784
68,68,13.5536178283345,1.17406685865656,0.952240340523555,-0.0772488938169321,0.0281987780872841,0.0116076049489337,-0.511778671971325,0.476911309295045,0.0475744868586216
69,69,13.5525191386898,1.17433315492551,0.95228744128646,-0.0875073157845443,0.0329664981824932,0.0101466793891497,-0.424567502662205,0.464977192783829,-0.0183589321490406
70,70,13.551310358817,1.17466922108329,0.952319585620443,-0.0981142633479331,0.0384750030709409,0.00793961316458467,-0.279505060027137,0.456623458615764,-0.118528995669144
71,71,13.5499970052518,1.17511299170438,0.952324173313076,-0.10880870552163,0.0450190646520383,0.00488725366936676,-0.257129937085515,0.462037462105089,-0.204592609605574
72,72,13.5485845965661,1.17570236619505,0.95228859384554,-0.119161847974916,0.053000305094849,0.00103743518210202,-0.289233195588086,0.599384769549949,-0.297346872487744
73,73,13.5470639367971,1.17645116961094,0.952217410308404,-0.129903532734476,0.0623702702465464,-0.00368064496668929,-0.351013524426253,0.724908572815952,-0.44582120480949
74,74,13.5454314038444,1.17733416823779,0.95211911676153,-0.140940317669563,0.073741876580694,-0.00931452070039643,-0.486637402537937,0.702047860934937,-0.424800433474797
75,75,13.5437008699737,1.17833058592244,0.951987203537081,-0.152679875074236,0.0850096856242734,-0.0157769309268361,-0.547742034510564,0.759112000742011,-0.493965210771123
76,76,13.5418861916533,1.17941954796005,0.95181544964149,-0.16468268929901,0.0967685889524129,-0.0229023509480093,-0.5623927692599,0.740598660462152,-0.600414149413698
77,77,13.5400012026096,1.1805800317353,0.951598199812371,-0.176658526305762,0.108871353916587,-0.0306291219014329,-0.545537387576952,0.624819735910369,-0.676057293825187
78,78,13.5380762265258,1.1819297914295,0.951341505775338,-0.188342178688701,0.122677366991326,-0.0393657247439546,-0.509344465655319,0.554001653450608,-0.726898622441312
79,79,13.5361021394824,1.18348222024261,0.951051374993713,-0.200177786927014,0.13842765829059,-0.0489729476700778,-0.425056717123822,0.493426664591238,-0.730514044395624
80,80,13.5340335203977,1.18505975390185,0.95072311098284,-0.212002964893607,0.153282511891861,-0.058680302910321,-0.3666514910166,0.34604336694422,-0.762512194574064
81,81,13.5318248619814,1.18648515130714,0.950352612135794,-0.223501163216094,0.163115380021179,-0.0677591999686227,-0.224823279305831,0.308478205289302,-0.832953642661766
82,82,13.5294306271782,1.18758168412244,0.949936539112503,-0.234444707263139,0.163181075586971,-0.0756146392155558,-0.222678993125345,0.401811085213912,-0.892466517641399
83,83,13.5267831293982,1.18827651584848,0.949415935119308,-0.244874195544818,0.151781138514301,-0.0842606349171166,-0.274608134442624,0.303521376431095,-0.91751690793386
84,84,13.5239130705981,1.18868757178083,0.94880104073709,-0.253313092011075,0.131583103613669,-0.0946731164093345,-0.350721925829044,0.240656701577602,-0.948594825580939
85,85,13.5209227020181,1.18892551115331,0.948191281375302,-0.261195181942584,0.10810190169938,-0.103222664603669,-0.0898852974434299,-0.0233805513523484,-0.632510707038379
86,86,13.5179144122515,1.18910207071003,0.947683109513769,-0.269369940765692,0.081030296444062,-0.106365614845545,-0.0481056302523001,-0.158640119776316,-0.0813073821023827
87,87,13.5149906008887,1.18932999637734,0.947369572946391,-0.276616902637291,0.0553960826665527,-0.100378131857642,-0.279363086175391,-0.100707541804717,0.363166634786516
88,88,13.512148059728,1.18955334557096,0.94726042278833,-0.281388331511521,0.0348200449644986,-0.0816278024946602,-0.802676547418583,-0.0519791553582764,1.09400871264616
89,89,13.5093205233174,1.18970228081541,0.947297805072873,-0.287585946518297,0.0216675232987396,-0.0522418503560934,-1.36344951433094,-0.292125998494083,1.8793277504426
90,90,13.506514889511,1.18986640105167,0.947467901533734,-0.294173363361846,0.0162942888781249,-0.0180510938639089,-1.727673226166,-0.527630040395927,2.61768534968976
91,91,13.5037367334891,1.1901310470587,0.947752792339,-0.300833344664331,0.0155747667823169,0.0154380683341664,-2.03617792102426,-0.761369803800919,2.99665479918154
92,92,13.5009904346383,1.19057746186627,0.948130657108572,-0.30597888925781,0.0175085960099182,0.0424348710956237,-2.04879831140697,-1.01134319486684,2.87720832175834
93,93,13.4983256930422,1.19122295335303,0.94864823285785,-0.305312066270372,0.0184210488771095,0.0631520533171672,-2.38178005375303,-1.16799644094374,2.41644957870596
94,94,13.4957395493422,1.1920080642029,0.949315984128825,-0.302313566251095,0.0190017128205899,0.0806623624959634,-1.94749809531877,-1.1836072705011,1.66442685391583
95,95,13.4931564984032,1.19289836468724,0.950053987577766,-0.301923764223346,0.0191987358819501,0.094526296605849,-1.32168205227322,-1.05975562369681,0.772986986701381
96,96,13.4905003920621,1.19386201188066,0.950780771472386,-0.304018585601116,0.0198442456347194,0.103979841670452,-1.30472568154005,-1.07358864917382,0.044386299646355
97,97,13.487694283016,1.1948692727249,0.9514136805754,-0.307527488533909,0.0207181547401079,0.107758490239406,-1.32601230044192,-1.09026120790127,-0.247255522793103
98,98,13.4847478686638,1.19599650670383,0.951965043109947,-0.315022504317912,0.0216951112734387,0.106354390935398,-1.0959876870582,-0.989708608420799,-0.642514302579336
99,99,13.4817110819758,1.19726488684857,0.952484758323695,-0.322423960942311,0.025259936412867,0.098761711498085,-1.23023684399325,-0.937204199964406,-0.682780238478835
100,100,13.4785668211231,1.19856256997465,0.952946756433148,-0.330492705530255,0.0314735447989581,0.0873157746762895,-1.2139765967844,-0.925189867705363,-0.69568658627196
101,101,13.4752980520991,1.19977732867384,0.953325772237102,-0.339669197443543,0.0388673228211944,0.0741187568904974,-1.07054333233882,-0.839746132833884,-0.697261922186119
102,102,13.4718877708684,1.20079677385121,0.953597236037141,-0.349897163889474,0.0448092175228325,0.0609527860991155,-0.943545877351473,-0.76825447022155,-0.727539151846836
103,103,13.4683037829569,1.201596117931,0.953763377301272,-0.360767574403932,0.0467087844988491,0.0472583272082617,-1.01045372003823,-0.617824142104469,-0.845144246648825
104,104,13.4645559689098,1.20224980077493,0.953840909098848,-0.372272237758367,0.0462562837880479,0.0317991109643561,-1.02064249925547,-0.423212361430711,-1.06356274731641
105,105,13.4606905156998,1.20279446561752,0.953827639331202,-0.383703033804248,0.0448809018632346,0.0153044988311312,-0.965161525459073,-0.278280283500206,-1.28829611523603
106,106,13.4567537433477,1.20326701387519,0.953721360909072,-0.39542127330177,0.0422841513422462,-0.00110194042567724,-0.792350703365321,-0.210195445419286,-1.58052201288508
107,107,13.4527921391089,1.20370462213024,0.953519650901156,-0.405574407421625,0.0394150932430319,-0.0165907757252425,-0.800685064892401,-0.0859925549539965,-1.65964771578342
108,108,13.4488407261401,1.20411036383041,0.953230892690074,-0.41281443587499,0.0371531320839467,-0.0313930161230688,-0.934781899265324,-0.113498442233782,-1.58177358222345
109,109,13.4448677641116,1.20446001684562,0.952859496916922,-0.417724542819176,0.0362830585423239,-0.0463264569033105,-1.20054184620904,-0.143882653897351,-1.52107716386723
110,110,13.4408198250912,1.20474961297727,0.952396742042813,-0.421613659376932,0.0362321117897613,-0.061005450043401,-1.46167618453775,-0.146075886437257,-1.43305684400865
111,111,13.4366435717632,1.20497462933553,0.951833676565112,-0.427096610386905,0.0350529946252139,-0.0750053830175541,-1.54767935739113,-0.16244251643277,-1.32542958073789
112,112,13.4322857316529,1.20513001871722,0.951160995887687,-0.43722744079138,0.0309890980897902,-0.0880873078914062,-1.37360138266689,-0.028871362113377,-1.43207505069211
113,113,13.427753097559,1.20521539881489,0.950370128877825,-0.45190503142983,0.0247843788446425,-0.10082282640559,-1.22298190928069,-0.108516527551898,-1.43359275392159
114,114,13.4230815909467,1.2052332699347,0.949472006612421,-0.469207449680093,0.0181439596638685,-0.113492247989555,-1.24938816521341,-0.184506008925672,-1.28063919077123
115,115,13.4182619942637,1.20518286130887,0.94848464193813,-0.487866733507089,0.0112210341678202,-0.125320148190715,-1.22019987767679,-0.265812251980076,-1.13297071387338
116,116,13.4132852806401,1.20506383618307,0.947423624158477,-0.506081333041658,0.00382488268373607,-0.135552470764902,-1.14392854531342,-0.325989558457574,-1.03551533977357
117,117,13.408142311775,1.20487625913119,0.946301969931666,-0.523578540825657,-0.00443531819874812,-0.143285277914228,-1.15207034116249,-0.374840170249774,-0.903466286074644
118,118,13.4028476028041,1.20460397064792,0.945090296324591,-0.540738790065656,-0.0139906214541654,-0.149057375927637,-1.20104614365078,-0.34470657523438,-0.769765752130828
119,119,13.3974087294157,1.20424690196723,0.943780434368656,-0.55698307577641,-0.023723679515069,-0.153378818342399,-1.31968905441966,-0.406701695648494,-0.58612282034868
120,120,13.3918054137211,1.20383014637993,0.942413192642871,-0.571845254005471,-0.0332510353191359,-0.155835434386665,-1.51119399120043,-0.368712178648497,-0.422155531268426
121,121,13.3860165340786,1.20337961189262,0.941026613020863,-0.586297225195684,-0.0422442578106905,-0.156445082360772,-1.6538199670586,-0.248318029305877,-0.17904522539086
122,122,13.3800199804373,1.20292181267317,0.9396563555811,-0.602862014384802,-0.0500652518484798,-0.154932141501621,-1.64384982478935,-0.103367070764315,-0.0938551833366758
123,123,13.3738149367719,1.2024455697174,0.938261655316784,-0.622256298141915,-0.054623004489196,-0.151245183095172,-1.50094742135114,-0.102486595484095,0.142811273066875
124,124,13.3674150302882,1.201935631758,0.936814404522132,-0.643157030357938,-0.0558619059370375,-0.145553550397708,-1.40127825025492,-0.101639358927855,0.32010684443294
125,125,13.3608187326257,1.20141070420996,0.935367077829188,-0.662552895043141,-0.0550731166459289,-0.138095086668458,-1.48350030005173,-0.211522321572661,0.599581506874411
126,126,13.3540242412257,1.20088716094313,0.933971331528504,-0.679687622701973,-0.0523144656421057,-0.129779012313244,-1.87716508854672,-0.346658372240605,0.892338307290611
127,127,13.3470296945321,1.20037970579746,0.932678454441948,-0.696914547251759,-0.0514170271449713,-0.120662602113802,-2.0181039797577,-0.44500064719012,1.0184355135431
128,128,13.3397897965444,1.19990207631457,0.931503416808534,-0.714399006319433,-0.0521103010553249,-0.110435453864436,-1.74040295296669,-0.582572623357128,1.02170278160363
129,129,13.3323046582983,1.19944217654147,0.930409600700592,-0.72942732235776,-0.0522746771511701,-0.0985295050335092,-1.78624915252757,-0.786546706387552,1.10870548204451
130,130,13.3246410168511,1.19897596255955,0.929371833867466,-0.742521044218221,-0.0521223845646983,-0.0859287678932237,-2.11029015368244,-0.570740150487136,1.10398249802971
131,131,13.3168657460182,1.19847957745755,0.928365024568045,-0.75529130631172,-0.0522741334084898,-0.0722136209220113,-2.20877445548911,-0.686323948657931,1.06922636381574
132,132,13.309045547427,1.19792887619457,0.927363439968492,-0.769451788655573,-0.0547598640057108,-0.0571028331881367,-2.25977348680949,-0.739626947316421,1.2906052289401
133,133,13.301219050982,1.19733133433033,0.926341961978439,-0.786167682324554,-0.0579682733111759,-0.0382849125602065,-2.31755890155,-0.659858805041966,1.48175594074291
134,134,13.2933422716936,1.19670286596943,0.925318199058646,-0.802290549965227,-0.061580474646853,-0.0185813717631324,-2.41068723268695,-0.64129888599015,1.84388238160409
135,135,13.2853575609549,1.19603190818514,0.924330124034751,-0.814324979369194,-0.065070881277095,0.000113099619257043,-2.55103898628219,-0.372111511023385,1.86044830874361
136,136,13.2772068333316,1.19530714776505,0.923415987107192,-0.823517777133944,-0.0703000389602607,0.0168508139859949,-2.60108108762433,-0.19104171933337,1.83325000931653
137,137,13.2688315221162,1.1945175081425,0.922614399032222,-0.833093473409143,-0.077340424632234,0.0313079100911823,-2.30963518143532,-0.0812137529490448,1.89003844154924
138,138,13.2601367106259,1.19368554233912,0.921906128834633,-0.843786716720071,-0.0852164473073116,0.045457635250084,-2.33996617643883,-0.170631992687098,2.17277570145101
139,139,13.2511607785241,1.19281951528188,0.921267579989072,-0.859558927559498,-0.0956211846969106,0.0617062932996747,-1.84282887224694,0.014027071922568,1.70784738486093
140,140,13.2420447653827,1.19188655231153,0.920730835041221,-0.879805490224231,-0.106661475419178,0.0763720496962272,-1.55796838153312,0.345378930549948,1.6105287070727
141,141,13.2329295988073,1.19085285011891,0.920327532661887,-0.904193772742061,-0.118828252690144,0.0883880142656803,-1.7657120157912,0.73382028792781,1.51886819861669
142,142,13.2239560532263,1.18968356891844,0.920089045753289,-0.930386392433576,-0.128941475789696,0.0934830560226814,-2.0978877050713,0.674428983449049,0.980349766072455
143,143,13.2153431954822,1.18825508614477,0.919941986901846,-0.95853222482117,-0.143383467085013,0.0870002262357491,-1.57671964096191,0.443681559234805,0.0856967000763364
144,144,13.2069950091308,1.18658775397996,0.919868714930619,-0.983510766445012,-0.167696704536594,0.0699283542700673,-1.15735804432537,0.0477280214381929,-0.705459724028612
145,145,13.1985803986924,1.1848633903114,0.919983622656167,-1.00488725836005,-0.193323418681059,0.0467296073551144,-0.775421134208216,-0.0624354095904165,-1.22887498861122
146,146,13.1897697189912,1.18326609204316,0.920400166357816,-1.02071033322524,-0.215886537732083,0.0230352263111906,-0.48753785564481,-0.019653757669864,-1.40880919629852
147,147,13.1802352093323,1.18198230827008,0.92123177084328,-1.02430005182405,-0.229360885885703,0.00562989658069863,0.0199601122337164,0.132590413885312,-1.052929462839
148,148,13.1696882770898,1.18108343726609,0.922666429835168,-1.01961539999732,-0.225402095721713,-0.00241032775219599,0.587695167464525,-0.0306254748878,-0.634153549149933
149,149,13.1583503448474,1.18044718388433,0.924639119123786,-1.01672525172517,-0.209323777840971,-0.00392327779165073,1.10286856875006,0.13253210661459,-0.411416147029391
150,150,13.1466592476826,1.17997131429753,0.92688127247699,-1.01669571101348,-0.187859093674847,-0.000185667469221951,1.19402443622609,-0.100765049697518,-0.260052581032164
151,151,13.1350511789792,1.17955405967181,0.929117121245324,-1.01785744651379,-0.16221095041348,0.00734064984991297,1.27470136400542,-0.380731988083426,-0.044320738816472
152,152,13.1239612461052,1.17909386396923,0.931062555970349,-1.01526311393911,-0.135098386510081,0.0188089227315344,1.01831861358222,-0.64392481553996,0.379272180551674
153,153,13.1134421698415,1.17870158498597,0.932675438988364,-1.00811106292729,-0.110142362967819,0.0349284345195213,0.980198105421061,-0.383645505345648,0.524299192036975
154,154,13.1032047851696,1.17844803268023,0.934144248023912,-0.994556354742966,-0.0858763107429168,0.0574753963582574,1.01797014964505,-0.320275581743893,0.776152687489707
155,155,13.0931711302984,1.17817001100039,0.935524042723466,-0.976108740462166,-0.0674435679491686,0.0826316626905732,0.812426572088207,-0.758114919588623,1.52445383028094
156,156,13.0832630862513,1.17770231893527,0.936868689546787,-0.952500722649012,-0.0612055465342839,0.106528816399125,-0.00544124973808419,-0.443199092446885,1.15428866510974
157,157,13.0734021710723,1.17687791780042,0.938231091625468,-0.936000143843071,-0.0605825847422395,0.122941011357075,0.0527416392112558,-0.344787555249939,0.723341963016254
158,158,13.0636263998952,1.17558625572318,0.939647087256972,-0.920850942919952,-0.0786409304264271,0.13217011137889,-0.133204706675728,0.319554898507656,0.282582778196742
159,159,13.0539888849052,1.17393626336352,0.941081198597144,-0.911962630844004,-0.107858640328147,0.138777237716478,-0.0162707959039374,0.0931166524236304,-0.0199730580737672
160,160,13.0444331208439,1.17208979812752,0.942478143162878,-0.910149618116436,-0.133620913524724,0.144123034939698,0.0674526482534459,-0.353523669139087,-0.507251216474853
161,161,13.0349020260141,1.17020966544374,0.943781361357358,-0.909328284005495,-0.158454173505376,0.146021753953149,0.0606432102958754,0.0175501811110557,-0.525534695501281
162,162,13.0253377592893,1.16845949717756,0.944932810738112,-0.905707937914383,-0.171448193027247,0.14186898044881,-0.0227634438277743,0.441245447038006,-0.541082204545152
163,163,13.0156878925607,1.16682347811287,0.945953321371567,-0.902192613498656,-0.171534740015847,0.128098653778744,0.4655883910224,0.754789118032946,-1.04156652027596
164,164,13.0059885748398,1.16519296083311,0.946881707847178,-0.908702915262096,-0.165272491398981,0.108064391502475,0.670558699075672,0.977806429416166,-1.77783876883452
165,165,12.9963141941645,1.16359195351057,0.947685634814438,-0.920171936253975,-0.151221578598252,0.085381475911273,0.985454667431977,0.95611970841146,-2.05356646923335
166,166,12.986739239771,1.16204332367841,0.948332382476944,-0.927882380224248,-0.13318237278999,0.0627027629561632,0.595361974247212,0.773106989695121,-2.17769065019296
167,167,12.9773383842882,1.16056889789982,0.948788695010087,-0.928480264898996,-0.124254177874789,0.0424657199328144,0.561608894038482,0.964131205988692,-2.26412865284018
168,168,12.9681525699678,1.15920916473896,0.949036900186392,-0.921544386444944,-0.118106197644011,0.02721131495026,0.0915913575995318,0.674203029731883,-2.03153885423225
169,169,12.9591291440697,1.15794696466003,0.949101893681582,-0.906003057861015,-0.115196838663147,0.0132555267421518,-0.18627556418302,0.482286587042551,-1.80083487441872
170,170,12.9502025937306,1.15671670271296,0.949012551782933,-0.887144285259184,-0.115960457377841,-0.000197508201803132,-0.252288879649731,0.246584991811417,-1.56125042255566
171,171,12.9413074373914,1.15545249132221,0.948796076017398,-0.870617670122698,-0.118792617335976,-0.0128979494765681,-0.417778915202976,0.162690628298362,-1.40184708326577
172,172,12.9323782603326,1.15408814675172,0.948478095441756,-0.86113141967618,-0.121287318789412,-0.0258496575470802,-0.364625339057094,-0.275475163169023,-1.47061285867031
173,173,12.923438188232,1.15260474691152,0.948051369342901,-0.856587462027373,-0.136472255676868,-0.0410568059770913,-0.644892419606517,0.19640293938277,-1.21530181971924
174,174,12.9145291149133,1.1510415250318,0.947500567903403,-0.856685763397304,-0.160789756561698,-0.0563196536235665,-0.545985344849628,0.387207544818963,-1.24051190445057
175,175,12.9056144465397,1.14942141139309,0.946837992483022,-0.860556874440184,-0.17787755054061,-0.0695077277404588,-0.731066984709577,-0.209107844828179,-1.25744311181871
176,176,12.8966582478797,1.14777013816364,0.946075554339917,-0.866667740065077,-0.187926648720367,-0.0810688692619827,-0.792044875520443,-0.596872576651851,-1.40893845396588
177,177,12.8876250436266,1.14611617684829,0.945224553827878,-0.872966687297139,-0.191465440929444,-0.0908069329098288,-0.911210922062842,-0.644580355116369,-1.43097336841445
178,178,12.8785705264647,1.1443961126889,0.944268669277304,-0.876300387674967,-0.196386016482297,-0.0995606553349328,-1.06208266199263,-0.349378679272676,-1.04042829777606
179,179,12.8695203678658,1.14259243512164,0.943206601098748,-0.881423933407181,-0.202628072788728,-0.107202680429047,-0.895243584882421,-0.0216462455867585,-0.853469497800993
180,180,12.8603949981834,1.14080506224033,0.942066950570653,-0.887645084174623,-0.206159976453043,-0.114401533439449,-0.778179848882491,0.199419605751739,-0.756470597867661
181,181,12.8511148051283,1.13913474781272,0.940871653107959,-0.893451752560559,-0.204661981503226,-0.121886137668012,-0.904499056336659,0.0514084959582403,-0.514117751310757
182,182,12.8415989774041,1.13768312135717,0.939636198320025,-0.902470908939175,-0.197706619033739,-0.130241631519565,-0.838860594384992,0.0785865986358165,-0.593458137007848
183,183,12.8318280463629,1.13645556506531,0.938273094637334,-0.917843746409896,-0.187930090868739,-0.141723388381748,-0.873444428968652,0.131320076237515,-0.808190779847757
184,184,12.8218573333072,1.13538622543393,0.936766555830046,-0.941003100319744,-0.17365837462909,-0.155803764577655,-0.565084077995384,0.335640594114387,-1.07219925067203
185,185,12.8117157531857,1.13447270435447,0.935231206184847,-0.968772214753322,-0.158777983811512,-0.169837137160756,-0.282333597197263,0.77629608698283,-1.01077856814597
186,186,12.8014305449257,1.13371496753431,0.933776455787825,-0.998241903894292,-0.141736879057212,-0.179712769399561,-0.360733629177743,0.843547396310844,-0.679403306265769
187,187,12.7910273256072,1.13311427790154,0.932507970408265,-1.02548216034171,-0.127758391459942,-0.181711788691918,-0.600801556176049,0.688161246012752,-0.0061329198159035
188,188,12.7805589727142,1.13278560628667,0.931436931054336,-1.04947945689012,-0.120907279187334,-0.173706931776374,-1.40119673423741,0.708080036635024,1.03947436587104
189,189,12.7700044340771,1.13273273027101,0.930482112063996,-1.06523364076803,-0.122784681927972,-0.160148435939796,-2.49481476250893,0.560160987449982,1.91623334865537
190,190,12.7592782571382,1.13278726917993,0.929611529827248,-1.07697228610952,-0.128517470607674,-0.142872075623161,-2.74143825692605,0.389113979196878,2.1598520809707
191,191,12.74829567661,1.13277869892277,0.928795308884932,-1.09471509371508,-0.12428050516585,-0.121066852665315,-2.38990046410008,-0.214796353480113,1.35436651017414
192,192,12.7369723945207,1.13253620850365,0.928004675448255,-1.11602464656235,-0.115319657316742,-0.0991266003560634,-1.97567017598351,-0.475657518599062,0.658634951780619
193,193,12.7253123583075,1.1319908185277,0.927170817205651,-1.13995214132989,-0.105237079492766,-0.0767057221788768,-1.76864320318118,-0.574340566186809,0.373925708670315
194,194,12.7133725346663,1.13125428761444,0.926315276679433,-1.16328097046436,-0.101884872719848,-0.053671287046097,-1.66269431277912,-0.102879368836016,1.14298323492076
195,195,12.7011484253367,1.13042814279289,0.925544611027859,-1.18271919553236,-0.101029842523398,-0.0271927215263961,-2.38722748656209,0.269164388894165,2.28373179871047
196,196,12.6886347261065,1.12961391461904,0.924964169451732,-1.2013046672216,-0.0983417567662408,-0.000396954511985781,-3.10644806062423,0.412033045061698,3.72575345382899
197,197,12.6758248654686,1.12891267152885,0.924677936874668,-1.21903015273163,-0.0947395248662888,0.0239212409311128,-2.69388681674317,0.394440333800927,3.93719458632493
198,198,12.6624573316263,1.12833213319577,0.924807785046186,-1.23667428727443,-0.0964857188570085,0.0478404439224975,-1.86681370542538,-0.0608343200226593,3.32916478513922
199,199,12.6485361504962,1.12780568043818,0.925288214464508,-1.25667102774923,-0.103622639821532,0.0730434876574543,-0.672869109122655,0.0648100501001231,2.85589231527773
200,200,12.6344520121425,1.1273225897736,0.925940806788334,-1.28098767512032,-0.105622588585915,0.0977129864590321,-0.265062284605249,0.08762705296981,2.39985462275799
201,201,12.6205954722337,1.12687208751773,0.926586059615463,-1.30479805676533,-0.105499455379213,0.11706954480927,-0.639283343019817,-0.122493808202139,1.85901575476803
202,202,12.6073570051823,1.12644320081159,0.927043491475727,-1.32701637150381,-0.108341249376932,0.128142318528485,-0.405151964012565,-0.155315813302813,1.09416599425319
203,203,12.5949058786566,1.12598169795268,0.927163323145102,-1.34609332237526,-0.105523855597845,0.119430417741205,-0.938055851344885,-0.448121126567514,0.0576307015898728
204,204,12.582979680117,1.1254972157297,0.927073416628113,-1.36352399537564,-0.0904095138093315,0.0946849397822476,0.411097297639416,-0.268734508092053,-1.81653022428406
205,205,12.5713215499772,1.12507282041895,0.927007530515944,-1.36981079869706,-0.0735380660819338,0.062199387171686,1.85333643270023,0.263197909846984,-2.01667633884197
206,206,12.5596756122835,1.12478912763595,0.927195798685602,-1.35889658826573,-0.0584145111083147,0.0333733636517693,2.06105119026234,-0.20573614333355,-1.34210441568874
207,207,12.5477877728589,1.12472400481921,0.927864648649749,-1.34101328670473,-0.0446161672940863,0.0177588457713286,2.64677146226077,0.138332677786689,-1.04951142042884
208,208,12.5355198710436,1.12491825617811,0.929138711245916,-1.31617219365863,-0.0282753081374208,0.0149161318939036,2.81986583456495,1.00430521306441,-0.634592088039244
209,209,12.5230434056597,1.12531482577962,0.930874739615213,-1.28211283521744,-0.00208252256771833,0.0209411426572576,3.08182641160447,1.06468014284491,-0.132956370966515
210,210,12.5105707016938,1.12584366826195,0.932891449699364,-1.24381529434391,0.0302671576995398,0.0354774302492872,2.94026975426368,0.849318745913524,0.826354820387876
211,211,12.4983138436134,1.12643635872607,0.935000772084383,-1.2073435694911,0.0505983011197325,0.0572910966752933,2.35433092195631,0.938397646028396,2.0982641879196
212,212,12.4864844326752,1.12702649385715,0.937007213228783,-1.17903792450888,0.0592724532998247,0.0836394845737376,1.41282991491416,0.95917146825572,3.92489543839905
213,213,12.4752151389652,1.12762890677874,0.938938192579936,-1.15368606012561,0.0670917917246354,0.116375949759122,0.528704535906219,0.427262035609233,4.34927055370564
214,214,12.4643676857821,1.12828723379685,0.940920268628352,-1.12609304555685,0.0827456511134116,0.157492047817142,-0.178825665383868,-0.0299820251047812,3.80097970892902
215,215,12.453746410214,1.1289804856432,0.942901247878131,-1.09972220786541,0.106777793132923,0.199270138305719,-0.585258818407099,-0.628881631528271,2.81948127181712
216,216,12.4431551646327,1.12968811916676,0.944828245070616,-1.07845942955858,0.120866519697137,0.233209773908398,0.1683854353804,-0.213429675760246,1.36310501207987
217,217,12.4323973053128,1.13038991044312,0.946647719002992,-1.06009124382079,0.123982954596688,0.251076490393955,0.404246230135188,0.151015477513372,0.167423207511426
218,218,12.4213741966437,1.13111767993565,0.948395023098223,-1.04800714312094,0.120873045244488,0.250315023343425,0.509297168659377,0.0593428945902598,-0.800411889989203
219,219,12.4102164961583,1.13188673897379,0.950104650629301,-1.04281198675285,0.112263616860856,0.236860069458197,0.695614794065252,-0.385317621735895,-1.26873766540139
220,220,12.3990705304335,1.13265223995864,0.951721162182879,-1.04340149223965,0.0976159538115091,0.214961734320611,1.18875132129908,-0.897699110885656,-1.77919651055029
221,221,12.3880820137314,1.13336921899609,0.953188462082317,-1.04707881237292,0.0789604325331303,0.189231783090691,1.67677965165078,-0.933409872584286,-2.47936739746401
222,222,12.377396180197,1.13399251430467,0.954449617591819,-1.04484297129845,0.0626258625009709,0.164231934146057,0.819485518672931,-0.911114490476217,-2.69744390801794
223,223,12.3670641020674,1.13451586917642,0.955520584821982,-1.03811478373736,0.0481226823324132,0.13900906159759,0.176466586855489,-0.863183830096946,-2.68735771093847
224,224,12.3569852370446,1.13497139488546,0.956440900028661,-1.0308271392561,0.0323786010354801,0.109375530188685,0.764292336534846,-0.568681360670776,-2.97187553868595
225,225,12.3470770572098,1.13537170509955,0.957187143730072,-1.02606288301869,0.0174650700879624,0.0790870282221295,0.773301447480663,-0.43652465268819,-3.08574191295832
226,226,12.3372569314073,1.13572947005147,0.957734185259404,-1.01809145881176,0.00284136705434898,0.049764554504275,0.401253422657446,-0.319041552707761,-2.99310894257987
227,227,12.3274421092314,1.13605700003291,0.958055209062537,-1.00812723990746,-0.00789409116702563,0.02292365917038,-0.0381422703820026,-0.33510927027544,-2.88125395547959
228,228,12.3177060635795,1.13631400326309,0.958135670641563,-0.99723253962149,-0.0138607948561239,-0.00131866819783054,-0.306237756603878,-0.248113100907176,-2.76618046687716
229,229,12.3081004297795,1.13649434550607,0.957994655452443,-0.984910285832555,-0.0148609331681943,-0.0241783948069495,-0.441977335268246,-0.246200360227014,-2.65249274546969
230,230,12.298509624164,1.13665989041816,0.957654483600131,-0.971392363484601,-0.0122495495496456,-0.0456082899746664,-0.608007054686255,-0.313320437474548,-2.51833658541233
231,231,12.2888181090041,1.13687101687458,0.957137327114549,-0.959579915246734,-0.00518256163094335,-0.0662984035928074,-0.850662731807981,-0.387718351201194,-2.22443975477946
232,232,12.2789105726963,1.13718700512521,0.956465474583399,-0.953615520191155,0.00203977747194519,-0.0863959079890716,-0.730002280830334,-0.231494478717674,-1.92429346644964
233,233,12.2687659769075,1.13768287431469,0.955641050294883,-0.955861040854333,0.0123345399287992,-0.105998101993316,-0.601219498359435,-0.134762482104892,-1.79078936054656
234,234,12.2584603821816,1.13831664563691,0.954656044577128,-0.964988366286725,0.0268335419031885,-0.124402674897272,-0.380823762271806,0.0537718153341633,-1.91859568342505
235,235,12.2480256816426,1.138972119142,0.953516334360247,-0.977336150143696,0.0407421571462948,-0.140730151852713,-0.598066307804133,0.33174142418359,-1.86945277566812
236,236,12.2374949400308,1.13953395839439,0.95222513987833,-0.992885665827965,0.0475290004948371,-0.154752918593805,-0.738433066047312,0.503547119376566,-1.59919520221312
237,237,12.2269018054865,1.13988782315906,0.950782460897687,-1.00907253679326,0.0516389661807186,-0.167218159589509,-0.671745226109792,0.323049320075001,-1.59576431881621
238,238,12.216327899586,1.14005697689292,0.949132531035383,-1.0212452772335,0.0475304016397664,-0.179356414470626,-0.834018814454858,0.333176138109775,-1.3353120311656
239,239,12.2057571653283,1.14012003240827,0.947284854472521,-1.03293540870467,0.0386298561693696,-0.191510241179275,-0.873747878743686,0.118891132364297,-1.15444383017411
240,240,12.195076057807,1.14004470253706,0.945324545901093,-1.04591304423187,0.0247887256894318,-0.202427191188368,-0.714222796467419,0.132301885745376,-1.10322775897876
241,241,12.1841677193873,1.13979563429186,0.94332276714136,-1.05950629169914,0.00987159890058534,-0.211324143470185,-0.790251491291785,0.168364517629184,-1.07406510390179
242,242,12.1729100911853,1.13933429522994,0.941338610882908,-1.07176270496003,-0.00589534381474706,-0.217404875005436,-0.889468656404992,-0.0883982480731887,-1.00305946098938
243,243,12.1611539811536,1.13853353163172,0.939310170253332,-1.08768792409314,-0.0237568540328164,-0.219179796849685,-0.990252209897824,-0.961112026407597,-0.648006790689709
244,244,12.1489776882465,1.13741555432069,0.937182337052407,-1.11192838535979,-0.0471763564969819,-0.216514157978065,-0.681024837466287,-1.65071808365657,-0.376152107697868
245,245,12.1365944807207,1.13616410166087,0.935015262335838,-1.14365419839733,-0.0633019354115901,-0.208744260143396,-0.619221496861723,-1.56178989977365,0.263739642027561
246,246,12.1242159057454,1.13496320089777,0.932866569966498,-1.18237293821598,-0.0629951160878149,-0.195358355582621,-0.692773441228089,-1.58763458689926,2.07981637243289
247,247,12.112053135546,1.1339977256835,0.93079330703021,-1.22394028980967,-0.0620325356896852,-0.177072353385056,-0.951168613974806,-0.724984563647918,2.80003655661275
248,248,12.100248335196,1.13337087444659,0.928799596074685,-1.24615391679506,-0.0609361365392214,-0.158802777314281,-1.88143752044056,0.00161698208191444,2.40419403051142
249,249,12.0886592212551,1.13296322117735,0.926845699909815,-1.25131463507527,-0.0553189465438896,-0.137856854756218,-2.84650392617175,0.2814009498984,1.82763363951553
250,250,12.0770715559672,1.13262522558616,0.924924855614353,-1.24829834043275,-0.0450382542433537,-0.116750386756975,-3.55674669458704,0.261632887967727,1.90411272695112
251,251,12.0652685061167,1.1322018179505,0.923024495011082,-1.24955909111963,-0.0384766231897713,-0.0940691909026151,-2.85842986907656,-0.130866403646194,1.81316685111734
252,252,12.0530291907345,1.13153199378913,0.921123406237072,-1.26012785353207,-0.0393240697844698,-0.0707286842503603,-2.37870235314848,-0.632745878291701,2.25903268931385
253,253,12.0401423978589,1.13049556897835,0.918996583818581,-1.2742766172302,-0.0541745035350453,-0.0457321846865439,-1.97806466278169,-0.620499356905649,2.62415109343312
254,254,12.0267544204834,1.12919641387123,0.916658641354877,-1.28757534311709,-0.0765129672154133,-0.0184348591397464,-2.31675158173181,-0.508014144793784,2.72689989523418
255,255,12.0131781283796,1.12780785488513,0.914442940825249,-1.2989472982027,-0.102472605065314,0.00900641076121768,-2.16762211620704,0.054789766452197,2.6870497368512
256,256,11.999726246067,1.12650345025875,0.912682113989074,-1.30680761719768,-0.125784915659144,0.0350438029004508,-1.7644869640381,-0.798583404463957,3.38552858707623
257,257,11.9867113636285,1.12545675033083,0.911708360427565,-1.31300920824139,-0.148654751624813,0.0543097828561171,-1.05706345538383,-0.656894813686589,3.69805082413959
258,258,11.9744093187073,1.12473885019116,0.911635113874534,-1.32026889679175,-0.162433783774946,0.0636834922413397,0.339724264366855,-0.120184526216202,2.73533646723636
259,259,11.9626092194984,1.12423360462128,0.91224847240596,-1.32593592066066,-0.16245965699977,0.0626318071569358,1.29333108076564,0.182890084818058,1.87737458535334
260,260,11.9508945021487,1.12383458651511,0.913388424844565,-1.32365875046717,-0.148780475999172,0.0542396335086,1.57620336290211,0.359929925492409,0.927571777487445
261,261,11.9388506957009,1.12343603786236,0.914891657297653,-1.31551529265311,-0.134896455527772,0.0446325120814374,2.64843629161658,0.274076863166727,-0.365722261754597
262,262,11.9260660175655,1.12293315245989,0.916591351129771,-1.30960633812227,-0.128304257597227,0.0412867191116958,3.41275437587095,0.228212084034616,-1.40666125994355
263,263,11.9122172833714,1.12231464944144,0.918644543775541,-1.30933618917964,-0.124477809394396,0.0419069253258907,3.24410439186166,0.187629598713735,-1.55396518686175
264,264,11.8975827907566,1.12165423645216,0.92117366825448,-1.29995633158987,-0.104447177604456,0.0456452199257402,2.61985145335216,-0.305719885159,-0.692513845915394
265,265,11.8826541789702,1.12097516518384,0.923952339806778,-1.28076695179288,-0.0748976946701054,0.0562593999513205,1.52680498054753,-0.911767533282911,0.341014360075764
266,266,11.8679220098149,1.12029889154563,0.926745125556732,-1.26686506732394,-0.057603406348027,0.0742941977056898,1.91784150778432,-1.10852143913424,1.43420818077705
267,267,11.8538760583864,1.11964437351924,0.929307355271981,-1.26014960773732,-0.0658154570236584,0.096513374298437,2.81245223691167,-0.669193705035701,1.22982999107604
268,268,11.8406177454963,1.11914729501688,0.93164692921629,-1.25315008147978,-0.088077193613865,0.124871927179918,3.05187425172338,-0.661874268607597,0.773944859239074
269,269,11.8278226594174,1.11879489717531,0.933923549789714,-1.24518796477762,-0.106518273119657,0.157685486646973,1.4522645014821,-1.21820772492846,1.01876744281283
270,270,11.8153407819764,1.1183812151284,0.936114221474501,-1.22743426185626,-0.129637656708849,0.188560039740606,-1.70172876543845,-0.626506790220721,2.09362961801137
271,271,11.8030217369864,1.11769991934567,0.93819441240152,-1.21703110727671,-0.149913815997813,0.212193836689191,-1.02528376408406,-0.249774390062909,1.40300139369773
272,272,11.7907147506488,1.11654459064266,0.940137553951807,-1.20994866004991,-0.162468830783714,0.223110329718017,-0.433385108273787,-0.148831083988016,0.574791269990025
273,273,11.7783791402196,1.1147386823274,0.941974276667687,-1.21442543939127,-0.167595648819658,0.218923716787514,0.973369703951639,0.125160932654873,-0.761081620664628
274,274,11.7661143232404,1.11241809548703,0.943721248836935,-1.22209627318627,-0.167025312080361,0.203830933163809,1.46837816197287,0.777502394629516,-1.64544671155553
275,275,11.7539787703751,1.10984537601085,0.945329246915941,-1.21273767187247,-0.164487105019802,0.17821747398348,1.02997396781959,1.32589467298257,-2.23921477769374
276,276,11.7420306457538,1.10728322830223,0.94674801217931,-1.18957327260381,-0.170093760595752,0.146796705065814,-0.015843920518104,2.04027216333106,-2.58140296037921
277,277,11.7303279754036,1.10499447377716,0.947926054630172,-1.17260138706411,-0.171332341568099,0.120443461669193,0.560098767090216,2.07357043611538,-3.75778185648708
278,278,11.7189141676451,1.10297075778033,0.94885671690382,-1.15433971613135,-0.16743805292455,0.0981446074500553,0.577282387825055,2.55158537239703,-3.6943701492618
279,279,11.7077468692267,1.10103653114475,0.949574665910571,-1.12976138162699,-0.151277670877614,0.0747297249276715,0.111450036113689,2.32171095979656,-3.31981067725806
280,280,11.6967556702983,1.09920259411947,0.950088796691374,-1.10327919051853,-0.132623183372788,0.0512016643510249,-0.302564100294842,1.6678843614425,-2.59115337154262
281,281,11.6858704433117,1.09747809539651,0.950407011675261,-1.07933089225029,-0.123114397130739,0.027802768417831,-0.187739711594476,1.38255045463856,-2.17376665148291
282,282,11.6750214224006,1.0958706647819,0.95053617337023,-1.05987603730202,-0.120601410010033,0.00703031957932617,-0.214676891797792,0.655385516549441,-1.42173421946133
283,283,11.6643038822136,1.09446081950569,0.950450264604955,-1.0509547365563,-0.124764859738566,-0.00839429766232827,0.413784104477045,0.218718288752268,-1.18022920134904
284,284,11.6537626270933,1.09323785113525,0.950145921788564,-1.04628303330599,-0.13327428362144,-0.0205824613530396,0.484717618037421,-0.18935240706723,-1.06755642522622
285,285,11.6432519370688,1.09207350605793,0.949663088359114,-1.04248018051191,-0.144794267229439,-0.0313481848810763,-0.45232928070291,-0.566905151614491,-1.14200101362257
286,286,11.6326252554848,1.09084202386175,0.949041651989389,-1.03862526607348,-0.157303238390089,-0.0419614076793692,-1.07864909941626,-0.636495096620534,-1.22354126062015
287,287,11.6217353171,1.0894198352498,0.948321729116134,-1.03640810186613,-0.169042726205961,-0.0539029647677512,-1.00133855319479,-0.785793853757668,-1.06021602001157
288,288,11.6104914366286,1.0877233296196,0.947478990666324,-1.03977192447739,-0.184076555598203,-0.0675703678954744,-0.514159802552272,-0.592379509630864,-1.14625910084605
289,289,11.5989904079903,1.08583391306932,0.946493554093467,-1.0497603202111,-0.204572508127444,-0.0818011144240963,-0.152783739694049,-0.585640209587998,-1.42903021265037
290,290,11.5873674646369,1.08387883173464,0.945410366169606,-1.06041468825401,-0.225748142751867,-0.0956713298953291,-0.282628354097128,-0.466229663595354,-1.19605111425936
291,291,11.5757593834068,1.0819879661537,0.944270786183614,-1.07134269574468,-0.241355746566691,-0.107852306470792,-0.627654671728768,-0.325999478386219,-0.97890540678612
292,292,11.5643036153075,1.080293837168,0.943112083778454,-1.07990395778236,-0.244995836242875,-0.118028374554224,-0.949773603266955,-0.0140186467691003,-0.694200583381217
293,293,11.5531215721396,1.07876949621012,0.941880133852544,-1.08741155806021,-0.235449237491787,-0.126759030876209,-1.24075384373314,0.117367009947995,-0.608614316836528
294,294,11.5421271312701,1.07733078259746,0.940556370023354,-1.09164676175357,-0.216142756798487,-0.136478287893854,-1.35583187725228,0.204082316866256,-0.509478980463956
295,295,11.531145411018,1.0760268858805,0.939218674573223,-1.09569342948997,-0.194894399245656,-0.146575816790496,-1.03811413836953,0.160864117301553,-0.54137955323913
296,296,11.5199983217534,1.07490775264738,0.937932075680951,-1.10325561333079,-0.17431893597271,-0.156146261424765,-0.733778945850038,0.408100420537113,-0.86368535251033
297,297,11.5085032162743,1.07402368138222,0.936750824477597,-1.11781140704799,-0.154155828095143,-0.163856370061711,-0.510650312053407,0.736950436699275,-1.13061424727493
298,298,11.4966547437493,1.07349616897333,0.93566017822037,-1.1368407579945,-0.132050192275526,-0.171028444832789,-0.556989995352838,0.924047168504501,-1.36898577856881
299,299,11.4845702806726,1.07329653234604,0.934607105816515,-1.16501415546677,-0.110463929135219,-0.175354387928051,-0.756783507121255,0.83705722458243,-0.776934878458663
300,300,11.4722474996927,1.07324663994404,0.933583221831955,-1.20051437987014,-0.0962474186987402,-0.175263082695107,-1.05347668903459,0.615932204913782,0.034050300165054
301,301,11.4596839791617,1.07316503664488,0.932580785161657,-1.23588248156901,-0.0950448236366303,-0.170639354661345,-1.8396297795355,0.28520221760461,0.818752476916289
302,302,11.4468777037215,1.07286818990285,0.931593255699673,-1.26256376295122,-0.105941428231039,-0.162788903839377,-2.61044133990045,0.156300641961824,1.37098069196041
303,303,11.4338674240264,1.07231436433553,0.930552914054579,-1.2871718052797,-0.113008306438219,-0.149192435036116,-3.35040942366955,-0.796689358912842,1.21765032475471
304,304,11.420652969585,1.07162239528609,0.92946467295523,-1.3139605593148,-0.118622715517008,-0.13176379771184,-2.83800781117696,-1.22387497106352,0.709222454217292
305,305,11.4071752738561,1.07084994151235,0.928432394185432,-1.34255584613536,-0.122433176479426,-0.110446341665978,-1.52957447157035,-0.813001060293432,0.796610019304674
306,306,11.3933745641411,1.07005537654277,0.927556457866994,-1.36383633058725,-0.129461890813722,-0.0860802480976159,-1.56140780660889,-0.383244842485344,1.84024015696255
307,307,11.379189431688,1.06929735283274,0.926932098867073,-1.37767632396712,-0.134347665840662,-0.0622685006655168,-1.57542555702419,0.161946573178619,3.62798186868336
308,308,11.364242140582,1.06857798555848,0.926661812998314,-1.39334060628094,-0.133860436335376,-0.0292006013227373,-0.979338242320091,0.33459671595079,4.42110707840635
309,309,11.3485739233108,1.06785840782443,0.926685206061264,-1.41217144494988,-0.138464534305373,0.0126093105405472,-0.36224928907613,0.15792575299113,4.37042842691442
310,310,11.3327503540111,1.06713703191886,0.926849685065181,-1.42910287921889,-0.138745388274663,0.0552646190806873,0.0166725182446008,0.356373616208443,4.03162691726594
311,311,11.3173364086422,1.06641346052998,0.927001843859969,-1.44839043731395,-0.132343321435189,0.0938682545732269,0.132970843527239,-0.00391357180653435,3.35572188145171
312,312,11.3028965032897,1.06568810727079,0.926987461841,-1.46795807645798,-0.131634791295871,0.115893685522929,-0.435563952823862,-0.137100301593319,2.49766715442145
313,313,11.2897418458404,1.06490855128312,0.926592097071388,-1.47988239299825,-0.134093726930997,0.114388963969642,-0.251266099303354,-0.178996455262761,1.18508040959065
314,314,11.2774937429468,1.06407990322633,0.925927104037735,-1.48892491770149,-0.120160231637513,0.0947547648588176,2.18752475645347,0.204680651253182,-0.939858610252787
315,315,11.2656815745559,1.0632859909314,0.925324177758041,-1.48296595178303,-0.0979304457806303,0.0681125139004815,3.03229079998611,-0.110365294660992,-1.81276616873479
316,316,11.253836010177,1.06260612643156,0.925110646487489,-1.4639878388992,-0.0812269670398866,0.0431935158708052,3.07137601334072,0.245269707242536,-1.25484863803709
317,317,11.2414901478289,1.06211519986367,0.925609842647551,-1.44021021253529,-0.0688892188984648,0.0339566920222183,3.32112257217407,0.711370084167922,-0.733565653593103
318,318,11.2284614700137,1.06180207702663,0.927027062862845,-1.40535544068953,-0.0566112031977867,0.0477172258740485,3.44589028769888,1.13119089210627,0.227261759828861
319,319,11.2150646909159,1.06160893079677,0.929156273106539,-1.35783778715456,-0.0347065601169019,0.0765415123769683,3.08046375930539,1.22545973659771,1.22195220521116
320,320,11.2015809145053,1.06153951909537,0.931697563274261,-1.30706742446984,-0.0056945942680212,0.113502441639123,2.81579907899293,1.42149960890363,2.18892125599668
321,321,11.1882903540113,1.06160061845142,0.934342450288621,-1.26694611525546,0.0150588417681279,0.153473328202541,1.73676499599804,1.14544698136545,3.91409133507337
322,322,11.1754722086531,1.06180208836361,0.93677248382846,-1.2388231155543,0.0228230804632113,0.18611821139464,1.11499628624025,0.900064690909846,4.45736360164071
323,323,11.1632160665876,1.06219975180682,0.939019901254883,-1.21491729971906,0.036875378246343,0.213839770712142,0.344321211200222,0.165879216875842,3.88022926661503
324,324,11.1513388482406,1.06278647620923,0.941292237414572,-1.1954360195829,0.0573538208559122,0.242452087525235,-0.139582895988048,-0.248541046100303,3.29639931435553
325,325,11.1397095435659,1.06348023127307,0.943526936575844,-1.18294345066398,0.080684754376543,0.266753418929508,0.345693310953468,-0.242584212190563,1.32452233553924
326,326,11.1281964018551,1.06419965634366,0.94566102843486,-1.16722539370828,0.0940830749703105,0.282531736732456,0.163160632544917,-0.00646420448304272,0.00746376888827695
327,327,11.1166668984363,1.0648642888098,0.947631028837154,-1.14881969105336,0.0971801148164345,0.286296469758968,0.120658115465714,0.182471453939929,-0.607906841743455
328,328,11.1050623658105,1.06549592881331,0.949467058689972,-1.13552924297657,0.0923491492620156,0.275164854307712,0.850850310891114,-0.494395914468306,-1.25084719884642
329,329,11.0934700459464,1.06614992222956,0.951210156826961,-1.12631709746621,0.0775143398476108,0.251693124873941,1.16922485533569,-0.873874553481205,-1.82308244056886
330,330,11.0819750391726,1.06679789755556,0.952812319347658,-1.12369104405849,0.0552544124793662,0.220563749121318,1.9700713045095,-1.00353971962519,-2.56693750082083
331,331,11.0706617488676,1.06741242993334,0.954224510813123,-1.11800864694784,0.0338364395998813,0.185296327888159,1.4701923861176,-1.02362962665635,-3.16607313156118
332,332,11.0596141046933,1.06796664260252,0.955396490025308,-1.10697265905453,0.0205466430576799,0.150527357087778,0.670930070339597,-1.00226734006369,-3.46204111241915
333,333,11.0489115377477,1.06846998572917,0.956337121833187,-1.0941520750913,0.0109383701800609,0.114438762746965,0.756995435407924,-0.991737981381825,-3.53991613242311
334,334,11.0384938765262,1.06894566349566,0.957080479418327,-1.08030501742343,0.0011981285303113,0.0748131788561316,0.933578766330547,-0.83524915545854,-3.75414693001368
335,335,11.0282353294806,1.06938643848852,0.95761206546617,-1.06761425495303,-0.00818128093209333,0.035045197058349,0.818909079722852,-0.800383139482379,-3.87774972612437
336,336,11.0180099014623,1.06978318765798,0.957915858568287,-1.05288943269006,-0.0147538579017265,-0.00235351591799789,0.542506258115105,-0.609877036236106,-3.71254109524278
337,337,11.0076913486617,1.07012468776409,0.957974454969688,-1.0380449980232,-0.0180026174234746,-0.0336870586176099,0.193131341346774,-0.491227938882807,-3.48728767309828
338,338,10.9973298203542,1.07040220642672,0.957768530461387,-1.02228637084582,-0.0159822092184651,-0.0578242099430959,-0.240536029318667,-0.384045623701801,-3.14120160800536
339,339,10.9870061949744,1.07062303138049,0.957310492502044,-1.00317963983806,-0.0105264345320627,-0.0763655027742699,-0.71030617922833,-0.0371322339262879,-2.5703695669259
340,340,10.9766399696308,1.07079733879078,0.956629827287919,-0.986971159009208,-0.00351622769904371,-0.0911057431541411,-0.782267913187427,-0.0911797771761857,-2.09524146468059
341,341,10.966150427287,1.07093429116375,0.955756489979517,-0.976314199937066,0.00341061358962174,-0.104793061184115,-0.923592656027319,-0.076718871824009,-1.43096854632946
342,342,10.9554568437774,1.07104266364588,0.954721203309333,-0.977438237116804,0.00973654719336875,-0.11990184557874,-0.503179337192254,0.128418517239734,-1.17272196133261
343,343,10.9445365882777,1.07113361395529,0.953511358159915,-0.992881240237476,0.0185470655272707,-0.135862304591715,-0.0481681617961877,0.0854024708541498,-1.31193578240678
344,344,10.9334431365158,1.07119834382297,0.952116482461873,-1.01755959120575,0.0288325936424147,-0.14984975152967,-0.349643493434374,0.191478696309093,-1.32813643415161
345,345,10.9222119418575,1.07121721830722,0.950567646531991,-1.04647464818955,0.0360289584537207,-0.16172249004187,-0.599756503375861,0.422422364471058,-1.35382025932659
346,346,10.9108799158854,1.07117241686208,0.948890094161316,-1.07266513921455,0.0413054916564774,-0.171911610449256,-0.887830668024157,0.280901540510751,-1.2684732422735
347,347,10.8994840843593,1.07104774427391,0.947102597485983,-1.09142855045449,0.0415185991741413,-0.181692312379281,-0.84840285845309,0.413794001424764,-1.2924064467134
348,348,10.8880814002935,1.0708785865027,0.945143122780354,-1.10506376423309,0.0345288870067018,-0.193002256207376,-0.926222874072519,0.433149786277131,-1.44747123055048
349,349,10.8766542639105,1.07068210555653,0.94300459401013,-1.11753376868977,0.0231400484073516,-0.206160941475558,-0.897141848140228,0.370054983348117,-1.51971840905094
350,350,10.865125181915,1.07041088717516,0.940772709798061,-1.12706070241813,0.0102329135781906,-0.219391984425597,-1.01560611997785,0.129655923147852,-1.29594192725232
351,351,10.853411865092,1.07001032279014,0.938519045318415,-1.13396895123329,-0.00418711851423184,-0.230218669869657,-1.5683226266057,-0.140945524322373,-0.92139084488454
352,352,10.841425961909,1.06941961034286,0.936303737970989,-1.14184411529259,-0.0204373309457463,-0.235781624035997,-1.48810279294875,-0.738479935436956,-0.916866322043938
353,353,10.8290445426219,1.06851482325314,0.934087253566028,-1.15438954934354,-0.0382912175615577,-0.233466310024188,-1.0586180462899,-1.17050151023684,-0.580339461937279
354,354,10.8163199732429,1.06732911260839,0.931810434254327,-1.17322830809691,-0.0578597224880525,-0.223810918828665,0.0762554723967629,-1.07620563174314,-0.692428246060596
355,355,10.803423036722,1.06603663670276,0.929499969678505,-1.19349150409672,-0.0564605247587788,-0.209353329111302,-0.72435468325274,-0.921153205885158,1.36378340809044
356,356,10.7905250019432,1.06481383101969,0.927184374701056,-1.21580659530532,-0.0492374449773865,-0.190832884802397,-2.22358416646309,-1.16791819539878,2.73719278255119
357,357,10.7777978147422,1.06383845137756,0.924893734457242,-1.23585377738862,-0.0566835146002358,-0.172255770116732,-2.37702111121105,-0.717342237241644,1.99201778047087
358,358,10.7652510976223,1.06318404379975,0.922459167005069,-1.25073453423629,-0.0543933661505984,-0.153957698179,-2.97273181951587,-0.622037597515713,1.76571532965491
359,359,10.7527703333046,1.0627367964652,0.919861758729195,-1.26363886041295,-0.0477446675199638,-0.135311796098721,-3.0882182072852,-0.432347673015642,1.90242840952939
360,360,10.7403419343472,1.06239188032806,0.917357656357416,-1.27925937940655,-0.0476308157283668,-0.112360577441576,-2.48130343807841,-0.467104668031095,2.10382390536152
361,361,10.7279501647999,1.06203989554276,0.915199703661899,-1.29632279594033,-0.047929124875691,-0.0870585143004232,-1.84177812527326,-0.158611448177602,2.30941991105153
362,362,10.715576138114,1.0615668774578,0.913635814991314,-1.30619085021255,-0.0517737513713811,-0.0651696550378164,-1.63309468917928,0.180931270563221,2.75677064369877
363,363,10.7033065770514,1.06089879212782,0.91269356670024,-1.30256622971132,-0.0546565018940061,-0.0435047390456747,-1.53841411139859,0.574525882781575,3.34739375244529
364,364,10.6911520836924,1.06010822538572,0.912209487983456,-1.30056777471064,-0.0666108808286458,-0.0133305156040382,-1.28043297405484,0.850605435544975,4.35107862780886
365,365,10.6789778691932,1.0592995127582,0.912141897832339,-1.3092472973871,-0.0874833826087828,0.0184826306311553,-0.612991053988123,0.167873796153039,4.4793046909166
366,366,10.6666498503386,1.05857682156178,0.912449294250402,-1.32726519210997,-0.105903332281335,0.0476073849777013,0.294347015649369,0.0197824010302018,3.31022446375582
367,367,10.6540349777299,1.0580436435504,0.913091254115989,-1.35229794376565,-0.122627612828292,0.0655497662601388,0.0810557661934151,0.524175209140006,1.45251774270572
368,368,10.6411040206435,1.0577650326521,0.914199844592285,-1.36630095551249,-0.126989378905677,0.0593692791299477,1.15348874200441,-0.442730824122416,0.08943334544343
369,369,10.6279444306727,1.05766494736201,0.915816394412137,-1.37133859640873,-0.130590055828551,0.035033155883871,2.83410897460298,-0.391410393836394,-1.45580717128438
370,370,10.6146000320531,1.05763957551518,0.917760769281805,-1.3724937209767,-0.134024726684831,0.00591296190136405,4.20578701826927,0.251485323342761,-2.07233261153265
371,371,10.6011163240419,1.05759251742114,0.919843385395447,-1.36470391928101,-0.135972434837212,-0.0201425151841339,3.7725916050263,0.450871005562175,-2.22598254212043
372,372,10.5875411945274,1.05743463533602,0.921864646822429,-1.34234671609644,-0.129350375379263,-0.0313510320982526,2.10301302783982,-0.0846096455475283,-0.907607076035933
373,373,10.5736669639261,1.05726387370949,0.923857977763602,-1.30906548851777,-0.109171989806709,-0.0171716967198442,1.04608886553071,-1.75327022170782,1.36228782475152
374,374,10.5594678466551,1.0571507049411,0.925959421086756,-1.27666030523342,-0.0917407978696702,0.0147064921153228,2.20711998551608,-1.52909890036445,3.08429783605196
375,375,10.5452650283595,1.0569661144243,0.928114128018162,-1.25739555834383,-0.0849747625028861,0.0597108573990275,3.85864243833751,-1.68141091284646,3.37551340327681
376,376,10.5313769896702,1.05657690204584,0.930262356347755,-1.25080448531084,-0.0914912368439197,0.106298731895076,4.34575158385553,-0.991017886359443,1.51197935619261
377,377,10.5181195406934,1.0558462550485,0.932339018996081,-1.24412922995054,-0.101943820678223,0.142147505973598,2.26031288758744,-0.759067680998584,2.01499469125389
378,378,10.5056882925581,1.05470442644597,0.934370064220386,-1.22294948967269,-0.114318095202354,0.169536543972742,-1.75873391609068,0.144859658707593,3.58285158747801
379,379,10.4938725820035,1.05324305664255,0.936397967746143,-1.2020552745212,-0.14504305378909,0.194744278015855,-1.05081796402413,0.63064473506259,2.42044331190698
380,380,10.4823769935992,1.05156434774267,0.938377604977428,-1.18835964157696,-0.176105789265779,0.216498949206682,0.706088050613631,0.304414672122764,0.711095445402518
381,381,10.4709058822545,1.04976915270714,0.940261362692991,-1.18608112838629,-0.196160391575404,0.23431322394103,1.70331526050687,0.0895119358630126,-0.821552747969203
382,382,10.4591631461775,1.04795668911224,0.941998791542362,-1.17841850013812,-0.200626148722622,0.240351604684328,0.831266623230988,0.633338640735479,-1.40930206879484
383,383,10.4470077299273,1.04605626634647,0.943628384204578,-1.16255526947635,-0.201140517346577,0.226442276707218,0.553000361895067,1.76476434446831,-1.42483652746131
384,384,10.4346340495734,1.04399928690162,0.945182008865798,-1.15265321048123,-0.192503140130375,0.198485265280881,0.546323418862769,2.01120175466676,-2.25513386596293
385,385,10.4222486968103,1.04188610976391,0.946597580546359,-1.15339753135707,-0.181246695078583,0.164471689097008,0.81956634018779,2.09102224850216,-3.13935804305534
386,386,10.4100583225855,1.03981637958066,0.947812829859518,-1.16055274838313,-0.169928329230915,0.131093540038739,1.27007711434179,2.2718445393402,-3.61210228125027
387,387,10.3982697817003,1.03788928665664,0.948764921289086,-1.16170238796752,-0.155553544156526,0.104215276265603,0.887072128021218,2.19023707174886,-3.32871760087636
388,388,10.3870113276709,1.03613580369921,0.94945592609836,-1.14539171130506,-0.142749686455235,0.0792481433496899,0.0396381512750121,1.59255946758998,-2.95845457500946
389,389,10.3761424498253,1.03448523111218,0.949929935911791,-1.12171122092655,-0.134485631981768,0.0531176209097578,0.197351216557985,1.32198223718145,-3.05256718233165
390,390,10.3654667426764,1.03288483370598,0.950185316307821,-1.09308566288539,-0.131318213093847,0.0264553939291766,0.077351206786853,0.75394112407426,-2.85613526175757
391,391,10.3547871322235,1.03128298529109,0.950218851399797,-1.06865667496592,-0.130173660334896,0.00215912122726884,-0.117317157319222,0.339138056827999,-2.52521656910185
392,392,10.3439058644385,1.02962893696235,0.950026139859942,-1.05451144868834,-0.133432994157964,-0.0200293188231792,0.00144139929788409,-0.180819724142822,-2.06162118050666
393,393,10.3327900960775,1.02790084634895,0.949558235020822,-1.05502285054064,-0.14635349741149,-0.0397403599023194,-0.164472479018773,-0.366362369824414,-1.94969950123886
394,394,10.3215697813256,1.02612959736752,0.948820866358441,-1.06531188518074,-0.168546093757873,-0.0575969295561575,-0.795452433097028,-0.820651431337925,-1.59804508936401
395,395,10.3102912997131,1.02434563603996,0.947890643039975,-1.08331362217846,-0.196366850232963,-0.0738530454780882,-1.04107050407663,-0.943464781855692,-1.43496059853008
396,396,10.2990013444648,1.02258158675713,0.946843316410467,-1.10356442634912,-0.221881743634958,-0.0881682801778975,-1.00508547195388,-1.00847504909017,-1.16952869542734
397,397,10.2877468061959,1.02087198584272,0.945753543721043,-1.11695653350994,-0.242404491860489,-0.101444427428116,-0.639378013907505,-0.773696764421017,-1.08729004614307
398,398,10.2765570579993,1.01917952095325,0.944590565749943,-1.11883193989066,-0.252157944942354,-0.111666152469539,-0.494345789964896,-0.805636212498441,-0.98073081116581
399,399,10.2654036508026,1.01748099941206,0.943313948463652,-1.11109028458235,-0.251680460481818,-0.117807142530121,-0.675125057729214,-0.644895288524425,-0.828222913992162
400,400,10.2542479834071,1.01583514003589,0.941975651826105,-1.0972863232286,-0.243404873148335,-0.122041617539016,-1.1396653128573,-0.437421546552074,-0.737819303030763
401,401,10.2430509944484,1.01430349897057,0.940617079384932,-1.08122719765005,-0.228570299367872,-0.127242752117591,-1.50968350711072,-0.215958308527207,-0.556230073220386
402,402,10.2317709573241,1.01295057212119,0.939269568505701,-1.06966971940167,-0.214088346255358,-0.136293855455248,-1.34764788984021,-0.0993588072783746,-0.585261955488412
403,403,10.2204616008585,1.01180531805668,0.937880100931577,-1.06948429327534,-0.203318761766132,-0.150256472390097,-1.1382763754149,-0.131038225503815,-1.03668698191845
404,404,10.2091517817019,1.01082956958454,0.936418656512341,-1.07803016745854,-0.189320167591421,-0.168805146994784,-0.820345862955769,0.409093564272809,-1.21699578103777
405,405,10.1977574885433,1.00998964353509,0.934939454493738,-1.09601487437665,-0.170592852572092,-0.187123340406184,-0.372910667374193,0.538001044066475,-1.47800492981694
406,406,10.1861919410868,1.00925184768558,0.933490329639399,-1.12382658176869,-0.152385312643604,-0.199538400457778,-0.25739296977175,0.413165444064093,-1.18930047221813
407,407,10.1743663272915,1.0085816266665,0.932115211232876,-1.15838305276831,-0.143909540041996,-0.200950474608391,-0.914475668812474,0.0160859554983332,-0.196453124054581
408,408,10.1623598586924,1.00805210129373,0.930783283828356,-1.18630301257967,-0.151914963777396,-0.193970960394225,-1.63572531404796,0.520504953949651,0.949845481667993
409,409,10.1502259585003,1.00768671245663,0.92945464521676,-1.20530172490951,-0.164428806888239,-0.181992837665544,-2.31171927352549,0.641609111145341,1.89975829179958
410,410,10.1378380564764,1.0073735961983,0.928162343654669,-1.22653649611964,-0.159524072517178,-0.162273867499834,-2.68666393759833,-0.508293032787288,1.57002034904787
411,411,10.125070411784,1.00700134516988,0.926940489407726,-1.24754401167056,-0.150239342575922,-0.139108869495555,-2.45832590770216,-0.634650888365404,1.15184268658619
412,412,10.1117972756004,1.00646089213608,0.925821726593343,-1.2697819770695,-0.142950914221323,-0.115923510700937,-2.06889543524599,-0.635710501335454,0.844645768682928
413,413,10.0978310449574,1.0056866842484,0.924696353340031,-1.29592479139139,-0.143787651144929,-0.090194571491294,-1.79915089384369,-0.507319392981143,1.26532892172237
414,414,10.083256715634,1.00475211453763,0.923546862999337,-1.32553589901512,-0.148882989545665,-0.0574764913103087,-1.90267274455413,0.26318108343743,2.17926483338134
415,415,10.068357157091,1.00375859780258,0.922541439894401,-1.35565352596778,-0.150107584291804,-0.0233629863889447,-2.34479463837108,0.708493536670312,3.57644603589086
416,416,10.0534144081817,1.00280619925433,0.921846863874888,-1.38480334382862,-0.147121950183259,0.00938119467568675,-2.14270050782176,0.0243897169014902,3.77857678160983
417,417,10.0387094424584,1.0019927566656,0.92162903380707,-1.40366657977777,-0.151953283940604,0.0342216757238181,-1.64618318565346,-0.329574271834001,3.48910717678793
418,418,10.0241552509853,1.00135040138139,0.922020138359561,-1.41513050548221,-0.156915617668385,0.0523361188851601,-0.483422740517286,0.552749315585217,3.18900664740461
419,419,10.009564073276,1.00081370209538,0.922917413588372,-1.42983140072096,-0.149227532647444,0.0703217120866636,0.335897727158195,0.4695152472354,2.70945582720085
420,420,9.99506412898652,1.00033305396762,0.92413338738579,-1.44813966067367,-0.144756772999949,0.0834440448351716,0.0152663306579951,0.268601037154005,2.07040498323774
421,421,9.98078274427572,0.999859510907826,0.925477882965213,-1.46076987194318,-0.147854087812031,0.0936427310248259,-0.442206832187952,-0.396980706518783,1.08709159828719
422,422,9.96684698048806,0.999344684134465,0.926756907967626,-1.46998864403856,-0.144417509408031,0.0979044714900841,1.42659441104958,0.0102297259929011,-0.243065980016112
423,423,9.95329397181389,0.998743657559984,0.927953627077742,-1.47196766963611,-0.120120743358166,0.091365674713687,3.09557093649639,-0.126382991288382,-1.09781065558922
424,424,9.94003606847822,0.998092521956835,0.929206358396632,-1.45564371291244,-0.104012866373941,0.0701434869910727,3.06582960954009,0.236383037608799,-0.989359973796782
425,425,9.92701555010969,0.99746102346022,0.930546425239278,-1.43444043110211,-0.0955452069203935,0.0436589684373822,3.68848757543954,0.810104053396407,-0.49743778736958
426,426,9.91417778724049,0.996913692037906,0.93199927735787,-1.40554712427569,-0.08780623703938,0.0263958212422427,3.30645629645531,1.27152329881459,0.220388532654436
427,427,9.90147104971543,0.996510807932474,0.933584968150686,-1.36961998299941,-0.0738812969877821,0.0264898781393504,2.99564184926999,1.35551714439794,0.981482343957424
428,428,9.88891688000878,0.996238155472764,0.935345934765298,-1.3284232451354,-0.0415043092721888,0.0526520333330668,2.72771874196897,1.32517258086393,1.96188464952603
429,429,9.87655542998639,0.996048776683645,0.937268611471196,-1.29029070349342,0.00144447684414734,0.099248472872856,1.85119381361683,0.547449027006755,3.839590480217
430,430,9.86436358444159,0.995954530022619,0.939283585026148,-1.25804011956316,0.0320143983743121,0.152579805391451,1.76974718398719,0.800881206186601,4.10792167429929
431,431,9.85231753613571,0.995969603488487,0.941318313204814,-1.2286046700421,0.0531761704164516,0.201677772889731,0.923689050208601,0.658083495672922,3.93317765452942
432,432,9.84039312264564,0.996109406645415,0.943297160216216,-1.20489390855334,0.0715850372804456,0.235126364892399,0.314271053810945,0.249743252487429,3.11257648424938
433,433,9.82860583949341,0.996416102654722,0.945273029158396,-1.18954800301973,0.0843082622228824,0.253392528637669,0.150940098948652,0.227045637812054,1.48012232847028
434,434,9.81697312536228,0.996879799184704,0.947293974729717,-1.17255756000488,0.0892670973284857,0.263735022045688,-0.206203902387361,0.0827632673847875,0.42851815032111
435,435,9.8054723565583,0.997438518398493,0.94927456130802,-1.15832865912527,0.0881224480968407,0.267478293288874,0.425511494724542,-0.067537497334106,-0.278464317603823
436,436,9.79408000911178,0.998031387789641,0.951128203196272,-1.14902877526375,0.0838348102976625,0.265030534344123,1.43292941047592,-0.590814179865305,-0.979441472943714
437,437,9.78277192889667,0.998599380711789,0.952766834394202,-1.13958286926773,0.0720726649982457,0.255497000202819,1.70934381077788,-0.919027073353558,-1.68758520370374
438,438,9.77149522834588,0.999206611896258,0.954205694658502,-1.13215054593459,0.0545946006538005,0.236837311299412,2.04821243433461,-1.25869523889102,-2.37341386697087
439,439,9.76026220605565,0.999896321885203,0.955502741093126,-1.12354314580575,0.0367889708509246,0.207495503859364,1.33966241898833,-1.40045248771808,-2.86329900244181
440,440,9.74914588319003,1.00058019922765,0.956632367224137,-1.11475393348754,0.0186963123261315,0.172606993147606,1.04119065380276,-1.33388016578441,-3.01546813517523
441,441,9.73821909852575,1.00116953649063,0.957568167798097,-1.10800644762413,0.000118773186428344,0.136984657476488,1.45479222371438,-1.27212454791457,-3.26238263346008
442,442,9.72755462410261,1.00157442612091,0.958282858822815,-1.09963792650765,-0.0138715782548872,0.105068160293202,1.31823451488905,-1.15549753486503,-3.6131804617873
443,443,9.71727155516942,1.00173749650518,0.958776030645084,-1.08124708094376,-0.0203732249858965,0.0733608076196717,0.783021605619827,-1.02125777334862,-3.65805781478215
444,444,9.70731742700297,1.0017229326752,0.959068103724553,-1.05642691453365,-0.024946730973992,0.0399755723587571,0.587383931233612,-0.826050696669207,-3.47345509154575
445,445,9.69750763026405,1.001619972525,0.959161319990627,-1.02944579357381,-0.0284100981958571,0.00740467885001291,0.256263148395382,-0.574544911302456,-3.29340444046138
446,446,9.68765724122928,1.00151534924015,0.959056330952395,-1.00361929784751,-0.0296468643751995,-0.0229328480879806,-0.0138534509345222,-0.206618414780839,-3.05325604797136
447,447,9.67758097716164,1.00149351161578,0.958752447494789,-0.985415914089628,-0.0295667431957936,-0.0491154602440942,-0.322310163693167,-0.0627463118290439,-2.87896500041521
448,448,9.66725241968025,1.00160371224229,0.958246199624176,-0.977875666391778,-0.0231984019815153,-0.0710721415340574,-0.799644613958313,-0.024623254040672,-2.42771432178227
449,449,9.65679305260426,1.00178618148922,0.957541752379338,-0.980474945164814,-0.0122914458477955,-0.090310492874846,-0.765900889504623,0.451474008055943,-1.96249414864467
450,450,9.64624006928586,1.00196059131924,0.956648844041196,-0.992089034019923,0.000814122491098573,-0.108046575347057,-0.535200065680592,0.501677870688329,-1.89221921358169
451,451,9.63563157930906,1.00204736194238,0.955576507451183,-1.0072053606396,0.0128712530517478,-0.124982144850778,-0.279451871321349,0.647734523426756,-1.91097802634871
452,452,9.62500657838614,1.00196826141486,0.954332859095175,-1.01893202271143,0.0204249471392215,-0.14131718265643,-0.31344334442551,0.59740595723911,-1.75775194552509
453,453,9.61442519300652,1.00171346284833,0.952893100524619,-1.02499628147908,0.0210397808166327,-0.156630185161136,-0.62649897048401,0.707771273462573,-1.5966378770336
454,454,9.60386701160362,1.00133674532912,0.951263468925091,-1.02718742521261,0.0174717258395525,-0.170316886467473,-0.524874485960796,0.602335540863235,-1.67284784109659
455,455,9.59325122953252,1.00085489423592,0.94948963418298,-1.02734194035351,0.00978127979831222,-0.182679603420345,-0.75502389730828,0.623287963867714,-1.69122458011311
456,456,9.5824951137162,1.00028144988083,0.947605269303716,-1.02869771036301,-0.00104327438257696,-0.19435675914,-0.863999034993311,0.526009975610333,-1.60902422455952
457,457,9.57151169281571,0.99962648857216,0.945632620762589,-1.03268383252105,-0.0104034138113844,-0.206522905084503,-1.13753526465024,0.376234788171938,-1.36919516128494
458,458,9.56025972828943,0.998844302122669,0.943476769969778,-1.04310772108169,-0.0216787528488025,-0.221167924359202,-1.18474639496006,0.191829076032473,-1.41716169542871
459,459,9.54879899761364,0.997924515301773,0.941114941579608,-1.06241636050705,-0.0406042969853785,-0.23686891909145,-0.784799203379712,-0.468386868884693,-1.60160751102168
460,460,9.53718608264139,0.996927909577963,0.938662202231284,-1.09051963712918,-0.0590396138290301,-0.249583973565244,-0.152951749451835,-0.9401225802883,-1.29653453201632
461,461,9.52547235917781,0.995915569235925,0.93622385421473,-1.1248552533009,-0.0776166418985577,-0.255540871175553,0.130386688036872,-1.21853395950014,-0.698942489136849
462,462,9.5137058175755,0.994949552705469,0.933899246517205,-1.15588541925279,-0.0714171988237424,-0.251875249206564,-0.0480114096825041,-1.27963683448793,0.933592028154281
463,463,9.50193530071454,0.994008523350112,0.931669387522854,-1.17443728839982,-0.0394029433397186,-0.238017255675694,-0.844500473654084,-0.799121146951881,2.6469623107736
464,464,9.49012277627787,0.993053693638645,0.929456172164296,-1.17959519062189,-0.0312254068775247,-0.215660313346683,-1.73944917128562,0.264121978825717,1.78638634152604
465,465,9.47818733779823,0.992121692069453,0.927273787590645,-1.1780211460472,-0.0271153694291869,-0.187172035662305,-2.21692858405274,0.0827930455618453,1.33543197306703
466,466,9.46604715638873,0.991245777376722,0.925135261474699,-1.1706700288755,-0.0169483633585027,-0.159101376318519,-2.99069971808131,-0.0187758043447179,1.99563710100538
467,467,9.45361749960503,0.990454858014848,0.923048064762415,-1.17499721612721,-0.0144630080327523,-0.133389115828004,-3.1469959910231,-0.129427041951639,2.13487436126861
468,468,9.44068112436225,0.989741243260874,0.920858236369172,-1.20392734649339,-0.0206933265664268,-0.101638036572774,-2.93298490901702,-0.427407777444597,2.32613663791073
469,469,9.42729454933701,0.98908371317701,0.918562545337743,-1.2505968720628,-0.0300641091739809,-0.0686726275463558,-1.93450366154092,-0.497993684826458,3.1848149889497
470,470,9.41378147997121,0.988488962510162,0.916389941084681,-1.29215515431751,-0.0454273383668034,-0.0378501785347118,-2.16825241040004,0.238568038829532,3.10270869028452
471,471,9.40046517158326,0.987964416994178,0.914568902000194,-1.31291009226529,-0.0558920024675151,-0.0145175582193033,-2.8743767158132,0.53314303223333,3.11753489515957
472,472,9.3876682577378,0.987518278523765,0.913327816764366,-1.32261442526377,-0.0675381525136671,0.005165940120056,-2.44456294353845,0.186299374925487,3.45102078028837
473,473,9.37567868147655,0.987192784587112,0.912710773723896,-1.3218682637267,-0.0898948023798454,0.0235156118206631,-1.52963657934855,-0.385720829474476,4.04005815118391
474,474,9.36427867729468,0.986983293389852,0.912568961512103,-1.31876597376308,-0.113848482942736,0.0404061448913309,0.0452938770376795,-0.863783591282041,3.13607694364789
475,475,9.35303270821782,0.986826805561858,0.912841276079205,-1.31634418020933,-0.12838145357285,0.0542118633875577,0.380880864653637,0.189600121621721,2.66811346085148
476,476,9.34150706245983,0.986658205677718,0.913466125767073,-1.31793128325984,-0.136265068755569,0.0634609229050557,0.347672130882381,0.579962109790277,1.17478746016359
477,477,9.32927031083696,0.986410398038927,0.914382409235883,-1.31955968309311,-0.133041586465262,0.0646270907810172,1.63392064362596,-0.25014058234055,-0.351126768327897
478,478,9.31612518748163,0.986050992935514,0.915714171761939,-1.32946013064099,-0.13941154459356,0.0557698600688679,3.29635126874825,-0.081072169913473,-1.83379297463586
479,479,9.30236104757508,0.985616912678041,0.917518113307128,-1.34195773586028,-0.148613482408359,0.0382765766714816,3.7650724781496,0.542740161737567,-2.48064779052248
480,480,9.28827747126112,0.985149627483922,0.919626584156062,-1.34470534265797,-0.146774388038703,0.016848502436485,2.62580777811912,0.490217038673164,-2.10581771021875
481,481,9.27417410476395,0.984698345890711,0.921859262921059,-1.32862692700195,-0.128371604101801,-0.00188464008291211,1.47481786609544,-0.674794383514108,-0.507631254542865
482,482,9.26035220263755,0.984318745111235,0.924022676225592,-1.30020887170352,-0.108023375783967,-0.00296142127209258,1.27166939695856,-1.23441485330508,1.23199802466373
483,483,9.24674286258501,0.98414046322623,0.926157510981243,-1.27622489991026,-0.11106637896044,0.0215586658192085,2.56858403485674,-1.12008622655689,2.18495164400049
484,484,9.23314977002854,0.98413680160301,0.92839054860711,-1.25638101653208,-0.12087356710017,0.0657737498185945,3.58100061380223,-1.3264464951176,2.08830053256925
485,485,9.21968348254644,0.984128970484164,0.93064897025529,-1.23351315633036,-0.122582953144847,0.115960761616973,2.72559592418229,-1.20236734203985,1.5009940530561
486,486,9.20645315517396,0.983934381331812,0.932856871501124,-1.21093115112394,-0.120433472935878,0.159699459849409,0.415081385442581,-1.22151589285859,2.57748084154456
487,487,9.19356664175905,0.983367599475334,0.934934367512038,-1.19535888888456,-0.126665759635775,0.187045964167648,-1.03326100431283,-0.133905430474523,2.92801754164557
488,488,9.18113904501616,0.982351222892231,0.936905485131184,-1.18574817969559,-0.13415008958251,0.201235993049366,-0.998472971523527,0.42918897958132,2.25566565771503
489,489,9.16909775658596,0.981008627243718,0.938823307569204,-1.18544023874271,-0.141637899089961,0.210435066463352,0.562952157720934,0.148837707690366,0.522286610806654
490,490,9.15726781004044,0.979453178153186,0.940647755943309,-1.19005556463867,-0.15284045038568,0.215473704271333,1.15994290957911,0.593220004987959,-0.644662811779578
491,491,9.14547426964551,0.977796802016971,0.942336269131017,-1.19105560024922,-0.155666955676795,0.214755283129082,1.02194327960152,0.879511277439431,-1.53359045038151
492,492,9.1335422965543,0.976149696526033,0.943843545268219,-1.17736474672852,-0.15679405284815,0.204867417933931,0.892440434542942,1.63624210548644,-2.06562605288059
493,493,9.12133300036182,0.974430713925109,0.945190388603232,-1.15661011376833,-0.158111230535958,0.183685317971396,0.0775796975903287,2.15338088427448,-2.6085714202176
494,494,9.10895954053664,0.972563299699655,0.946405746021545,-1.14845996692534,-0.153320343803614,0.155885786125363,0.361061939594856,2.16543441433981,-3.32686507492296
495,495,9.09662534557058,0.970663167630285,0.947455028576353,-1.14622670900052,-0.145889917544738,0.125417793668747,0.727467413034143,2.41120962506758,-3.15224331580525
496,496,9.08453415038327,0.968846020707584,0.94830342436622,-1.14332926499499,-0.130940418934221,0.096033000366478,0.399228187610328,1.89916432280438,-2.83402613430398
497,497,9.07289011891489,0.96722775057419,0.948915507363228,-1.13830091598644,-0.119167216115018,0.070876334993835,0.265321003083481,1.3000412999036,-2.64241163375427
498,498,9.06187110450488,0.965882931408608,0.949275996758479,-1.12423829002447,-0.117812191588322,0.049157206174729,0.0654360617698017,0.773252803892585,-2.28742035132585
499,499,9.05133924666437,0.964731338967411,0.949410646078403,-1.10233999178138,-0.117351065226883,0.0285261510877341,0.237777777801207,0.584190979622955,-2.12224035798943
500,500,9.04102490497208,0.963657456457326,0.949344451007513,-1.07908773380186,-0.11540851980987,0.00953879536379324,0.145344033518872,-0.160191889195158,-1.98474787313469
501,501,9.03065731725641,0.962546430234271,0.949101748684338,-1.05894063730508,-0.116615240405731,-0.0094984426820148,0.00791339168015429,-0.245530159292655,-1.93289575173673
502,502,9.0199646180596,0.961283700269674,0.948706720522371,-1.04772646660251,-0.121386291719609,-0.0288778516629803,-0.256335535722669,-0.490339709671462,-2.08340437208475
503,503,9.00887886028034,0.959825607635422,0.948135667579221,-1.04745080608224,-0.135264926987696,-0.0490407554161604,-0.551137190449086,-0.50300065262027,-1.96457482506467
504,504,8.9975789160799,0.958245616860274,0.947378462672618,-1.05720801813575,-0.159411077997373,-0.0693429069688725,-0.495192898636763,-0.367074496697404,-1.78987902322421
505,505,8.98616389903605,0.956606180679321,0.946478508540035,-1.07318278078766,-0.188645199968286,-0.088680929229982,-0.423103904125065,-0.33742648617618,-1.62956502636791
506,506,8.97473438127981,0.954971862963347,0.945476611390927,-1.0890585404272,-0.21402436598696,-0.105246136939601,-0.591128529934535,-0.380698902191996,-1.34449173077149
507,507,8.96339176490598,0.953409383518487,0.944410373556888,-1.09997893657491,-0.230815697329581,-0.118154753631221,-0.580040275839879,-0.478913730080763,-1.23017389260183
508,508,8.95224048630485,0.951834994182441,0.943248303429406,-1.10174348720466,-0.234122614685905,-0.126338840202969,-1.00393369867946,-0.56424619676069,-0.871485083003012
509,509,8.94121744048811,0.950203573688596,0.941973284893732,-1.09760516555163,-0.228423142504673,-0.130954453601099,-1.48904301847911,-0.479022389638661,-0.562613558117784
510,510,8.93017300447943,0.9486439927872,0.940632944443127,-1.09059815313384,-0.216571163474546,-0.134090337723477,-1.64243298785433,-0.270379812718389,-0.30360799982463
511,511,8.9189558249464,0.947289071933592,0.939262727117862,-1.08545027950993,-0.203085756643565,-0.138669313867909,-1.29790723333027,-0.178706284286503,-0.377581320528464
512,512,8.9074110303999,0.946275252135949,0.937887387380272,-1.08727052882069,-0.191665638184025,-0.14697345941508,-0.871897563233823,0.334451201546404,-0.757958737614285
513,513,8.89550994685768,0.945706037892785,0.936423649712281,-1.10210963258209,-0.172308466473436,-0.159129566706715,-0.33700583253874,0.78093988650755,-1.28095797790717
514,514,8.88335402996551,0.94549818032737,0.934840534114117,-1.12705870442045,-0.143366381244907,-0.17391282552826,-0.107789852235016,1.26951922261242,-1.61384121344124
515,515,8.8709790853012,0.945507709676815,0.933232692369813,-1.16057751245431,-0.117237661796157,-0.187138659030004,-0.376939438353966,1.43136944472796,-1.20044490574023
516,516,8.8584195231673,0.945587630065537,0.931692210410536,-1.199738422844,-0.0993722616224124,-0.1943868043068,-1.01445769184949,1.05019555037747,-0.00703280822908402
517,517,8.84570928382069,0.945588378442997,0.93031049322565,-1.23991427132373,-0.0945461180789658,-0.193759367771693,-1.25547037270108,0.456492749746701,0.832840661739251
518,518,8.83290297920323,0.945523501953011,0.929061723384245,-1.26960582253251,-0.10683918943215,-0.18994832144981,-2.11282164151065,0.254222313632869,1.59889204397808
519,519,8.81997474796614,0.945490398962465,0.927881234232231,-1.2932990028703,-0.113878419548128,-0.182537954367062,-3.14916626517817,-0.520424802415796,1.36257302646867
520,520,8.80683935355232,0.945464098186557,0.92680473802839,-1.31843892735764,-0.114009715653116,-0.16863507802168,-2.84381712062775,-0.881145197177433,0.317457659452883
521,521,8.79341132203233,0.945420495603691,0.925865411738797,-1.33982898293084,-0.116036470074509,-0.150160033697453,-2.30328499217626,-0.539097286616571,0.328052931970833
522,522,8.77960387228622,0.945336601505398,0.925091350732308,-1.35577884259031,-0.117308233370787,-0.122148546934557,-2.25687424935149,-0.0670303615238226,1.47702005823347
523,523,8.76518590921468,0.945225437903338,0.924435563139256,-1.3652497342946,-0.120471351136967,-0.0785189105026364,-2.45973515410822,0.629797162498988,3.5557283726512
524,524,8.75021605274223,0.945101862638679,0.923881726063265,-1.37998900539649,-0.121101751557299,-0.0174087972498119,-1.32262536774641,0.929566912050569,5.22188612920508
525,525,8.73504077150946,0.944947095746739,0.923500454075701,-1.39302968607157,-0.128682765408209,0.0467493444887116,-0.113168234575919,0.263703925719283,6.17916155270258
526,526,8.72000581506181,0.944742988855709,0.923362555495258,-1.40350678683935,-0.131599625892527,0.102688882402672,-0.0640759860921957,-0.00616911000613009,6.32015280315125
527,527,8.70545603032152,0.944471900912228,0.923539527496264,-1.42171374466999,-0.123081945041156,0.141658513826955,-0.214230656202782,-0.559827109223134,4.53694333201479
528,528,8.69146718481403,0.944063520269605,0.924097108908186,-1.44495642213844,-0.120965784037133,0.153951846106595,0.542744775148915,-0.274855665146341,2.95589079963851
529,529,8.67780678253166,0.943533048192429,0.924999088817667,-1.45990608664237,-0.123049991360251,0.143983979161901,-0.110164961129043,-0.297759276100044,1.69312163961751
530,530,8.66435653795618,0.942990195102086,0.9261616718308,-1.46962828162606,-0.109840233793931,0.123810886977657,1.45532968951853,0.114180775066619,-1.00247942309284
531,531,8.65099921130959,0.942541973158694,0.927494950405142,-1.46858331611189,-0.0880952724744786,0.104069116957915,2.52538689324545,-0.431851027420436,-1.93443547157668
532,532,8.63762001803151,0.942292085420333,0.928902749966907,-1.45624278403445,-0.0766077391973406,0.0942012468741688,3.41881800191602,0.349079729597884,-1.70639366812869
533,533,8.62412734798576,0.942249250022155,0.930426093193708,-1.42722005338259,-0.0729472248221312,0.0904577112315318,3.50875962395885,1.00581516072783,-0.791741896349882
534,534,8.61060010600585,0.942339665820774,0.932137314504099,-1.38805014945357,-0.061163612915651,0.0918286226704205,3.2963027522064,1.31095304495649,-0.475712607947286
535,535,8.59718225537548,0.942540623489098,0.933979001545932,-1.33970597715309,-0.0413437241991761,0.0987211082051666,2.77373906733747,1.37009703701233,0.288799063711186
536,536,8.58401759332514,0.942830251469548,0.935885619085985,-1.29375211298023,-0.0130842049205737,0.112068905928203,3.03869284386689,1.32362332445014,1.19011171940392
537,537,8.57124963931993,0.943188533715544,0.9377825124386,-1.26283205594454,0.00824094177588672,0.132584820770851,2.57890237836242,1.19010322226289,2.4162499560947
538,538,8.5589875971898,0.943646936376343,0.939693790252219,-1.24363918939842,0.0150435067808329,0.163471082611371,1.43009773927382,1.03713967625157,3.76958904532863
539,539,8.5471404822946,0.944216633153676,0.941663735799171,-1.22692408554283,0.0230057530910229,0.202611823873702,1.13154516253235,0.678356171001575,3.49800388676606
540,540,8.53555019536033,0.944849954224188,0.943642081212088,-1.21117102369013,0.0402736440217804,0.242823250055657,0.212919866483648,-0.240082825115708,3.31391070443621
541,541,8.5240572414447,0.945500005108227,0.945578635944286,-1.20010174353671,0.0627336194311335,0.275226161432037,0.00896787200173803,-0.574886329976153,2.32861808931862
542,542,8.51250081709048,0.946120289648439,0.947423032984126,-1.18879676032316,0.0767954119469185,0.291447640243894,0.321517639962477,-0.422640017789671,0.758187779430494
543,543,8.50082153447084,0.946720875984315,0.949217858774068,-1.1736307791769,0.0777960765101656,0.289334284134503,0.14050624018079,-0.353315999772017,0.0724793426177541
544,544,8.48912533598599,0.947334250225865,0.950995968495084,-1.16277809539683,0.0674606488098886,0.275260904554577,0.813773740780655,-0.387117090845616,-0.877255284490685
545,545,8.4774978997444,0.947948179403451,0.952691631698803,-1.15505374464899,0.0511758646141003,0.253037401459076,1.29525850008263,-0.889892578750189,-1.61436471856303
546,546,8.4660243052879,0.948551048055155,0.954238126032094,-1.14994504711738,0.0326570913187428,0.225975021798466,1.67085685576225,-1.07504958715088,-2.48975820326938
547,547,8.45478921740963,0.949131779373222,0.955567665190345,-1.14181932850508,0.0193126002942339,0.19720404419641,1.31958238167045,-1.35652318438426,-3.11871534578131
548,548,8.44381827384291,0.949718725462377,0.95669726545549,-1.129294907847,0.00853824943744056,0.16486155586376,0.766034404067744,-1.59506898386332,-3.19812415208742
549,549,8.43305058635159,0.950322916011052,0.957673124189413,-1.1179062457997,-0.0030854927125237,0.125862477816979,1.05537160846392,-1.25566183790367,-3.55900370455546
550,550,8.42244072599087,0.950907750837706,0.958469069934937,-1.10940552221828,-0.015229547597721,0.0865688105396791,0.990942712367585,-1.28388175379005,-3.76799597233433
551,551,8.41194321290189,0.951436193006038,0.959057043878329,-1.09975162775984,-0.0236690965958356,0.0480546058303017,0.621687674705323,-1.06182526610569,-3.74996574043108
552,552,8.40151258056837,0.951870198096175,0.959407181354552,-1.09076875407484,-0.0302644683268352,0.0142380525706469,0.543541839371492,-0.989448386551747,-3.70606990719496
553,553,8.39124466336623,0.952196941421918,0.95950536944634,-1.07752232162839,-0.0333538807678776,-0.0147249966162891,0.270757874779836,-0.824676760691729,-3.48633726426049
554,554,8.38116626419525,0.952443833899059,0.959372220246903,-1.05969139852371,-0.0340167159605186,-0.0410376015770941,0.000311176521913644,-0.641144911323697,-3.1591882560222
555,555,8.37112860034046,0.952630605165971,0.959028416482083,-1.03987497745798,-0.0330578521698075,-0.0645745340966652,-0.167860375981489,-0.511010164679254,-2.89355220000442
556,556,8.36098298286143,0.952775338914863,0.958494063075127,-1.02236250947556,-0.0309766034935142,-0.0855970620409195,-0.466900915878018,-0.425697887778272,-2.3769785643535
557,557,8.3505807699187,0.952895166114548,0.957788787321073,-1.01185901860163,-0.027334741612025,-0.105076128402078,-0.800955042414213,-0.424217210524602,-1.71571206360004
558,558,8.33988633509273,0.953015557694932,0.956904602918516,-1.0150074986883,-0.0226962808690463,-0.121774560568404,-0.959281310878542,-0.135898133269183,-1.27809212540757
559,559,8.32899857951458,0.953122939165931,0.955832855759502,-1.03151802310192,-0.0149624819062275,-0.135117599516171,-0.565062550058445,-0.0893633757977848,-1.30877394017719
560,560,8.31797148918102,0.953175688378346,0.954591694782889,-1.05373882548712,-0.00776694061033444,-0.14612800669105,-0.508432903788095,-0.124785093091026,-1.42605067854203
561,561,8.30685971777466,0.953132125730607,0.953198423997558,-1.07597683174085,-0.00266893085581536,-0.156931654137874,-0.608635207563978,-0.084574807079098,-1.39282682654139
562,562,8.29571828333055,0.952950464470799,0.951669080346614,-1.09399856379587,-0.00251748859322273,-0.168673567858825,-0.576070473012363,0.00707962644893775,-1.50751897263685
563,563,8.28461283566252,0.952659748198062,0.949970126179597,-1.10310444042393,-0.00718194246362222,-0.183401576180702,-0.684553522568685,0.0864132146461697,-1.67095785626734
564,564,8.27351246188965,0.952287602525568,0.94810244846546,-1.10452023280957,-0.0139092563324871,-0.200343136155635,-0.792106484526532,0.0341401946725045,-1.74925004125088
565,565,8.26232713222214,0.951789762075471,0.946122744679786,-1.10313481578447,-0.0226489595773374,-0.217425177145042,-0.810992385916589,0.0610211744022559,-1.88710116818342
566,566,8.25096413609368,0.951121112667274,0.944073890747879,-1.10152493248862,-0.0313611482134976,-0.23276463159964,-1.18384396887683,0.123751100001034,-1.75894479826565
567,567,8.23932607004811,0.950235359969764,0.9419863332884,-1.10707740088218,-0.0403356706489901,-0.2440867782822,-1.27712812118882,0.0676563719319631,-1.70872718279055
568,568,8.22730040191462,0.949013107663182,0.939772645750064,-1.12558773542368,-0.0552179186710781,-0.250746767924367,-1.06436441491974,-0.329311743571442,-1.37770882270458
569,569,8.21495054377384,0.947483819903278,0.937398614813299,-1.14956558594512,-0.080509438456612,-0.256633519932598,-0.915676452897357,-0.91402404409476,-0.66260242476724
570,570,8.20243655070319,0.945822896799336,0.934963284910486,-1.1809412066113,-0.104699598136406,-0.258963671904801,-1.07348273752718,-0.861009446815583,-0.314149719770294
571,571,8.18991567474572,0.944205192499675,0.932561571552685,-1.21867003491177,-0.111609364155521,-0.252681016010877,-0.732867935243838,-1.5063058215655,0.674664803608591
572,572,8.17754384049179,0.942806049892498,0.9302867184992,-1.25254102349065,-0.110506768237707,-0.238702693775723,-1.09993942980155,-1.44950745424901,2.34902720972321
573,573,8.16543816282146,0.941662495306188,0.928138410545374,-1.26714866220617,-0.108709623183997,-0.220675337332111,-2.16640164148145,-1.01232818026342,2.57507366834436
574,574,8.15349126198587,0.940661490092469,0.926048754256325,-1.26597342375646,-0.0984696927091122,-0.19759548332948,-2.45739531754983,-0.499181746903951,1.85783400167563
575,575,8.14152374571436,0.939753161486306,0.924012859854251,-1.25321432305883,-0.0783678393001726,-0.171673440049695,-3.4906247893158,-0.304249649617468,1.70557946158819
576,576,8.12935462104574,0.938881898132682,0.922023159105638,-1.24125028383156,-0.0634015445122626,-0.145807547549145,-3.61600389290281,-0.321718486509031,1.72010861289392
577,577,8.11679970561269,0.937985357794636,0.920066035730056,-1.24916454447546,-0.0611013444698049,-0.114257437747128,-3.20141907734636,-0.43235350560064,1.79876630079619
578,578,8.10365987001193,0.937066711977749,0.917967855474667,-1.27941572594259,-0.0730525656896983,-0.0800726906682939,-2.30382610244769,-0.340179425639885,2.24844664309425
579,579,8.09005769158668,0.9361626134352,0.915739409127954,-1.31193699724493,-0.0948021935364406,-0.0448140741802609,-2.2373322444355,-0.112531369547016,2.53950574481789
580,580,8.07628878169248,0.935259235764013,0.913639554412914,-1.33540325766515,-0.107431435007932,-0.0122928938718045,-2.58658491869274,0.597794050029339,3.34146961475945
581,581,8.06264776588925,0.934344809224643,0.911927089001735,-1.34823443227617,-0.115851534042698,0.0166198471395888,-1.78089652925523,0.207959125147685,4.64466200260377
582,582,8.04942852113716,0.933409700181657,0.910861184933932,-1.35712560817861,-0.128211193657806,0.0378722952117105,-0.25166967960333,-0.26179795642838,4.71454179391189
583,583,8.03688910399361,0.932408290684516,0.910491012118768,-1.35860516132783,-0.140354314944535,0.046938847350881,1.02670661467994,-0.437159422131488,4.14590068409579
584,584,8.02482941053759,0.931349578664567,0.910651278785691,-1.36045514962059,-0.163663310826493,0.0485247340293145,1.54706092811157,0.152760729726487,2.3425830190038
585,585,8.0128574340293,0.930306436855053,0.911278313292528,-1.35576485663006,-0.178886402046202,0.0449931103068243,1.28609463550199,0.26689936094335,1.05441038674638
586,586,8.00058430624985,0.929350099217553,0.912305311744137,-1.33972340953722,-0.18309334319137,0.0360991109627231,2.62653161141411,-0.341763436124225,-0.313419071672094
587,587,7.98762500181315,0.928550460170347,0.91366243369495,-1.32907600982716,-0.187965371969363,0.0343790063716788,3.97317511269739,0.446345892183182,-1.83109923333791
588,588,7.97366035689046,0.928037077151809,0.915531878559795,-1.3263901824168,-0.188896119621425,0.0366648070701126,3.76793627955735,0.780195699951876,-2.35428676222802
589,589,7.95895120603114,0.927761916104623,0.917971527346483,-1.31306722649238,-0.173028420041085,0.0409080294792007,2.43396732799432,-0.313200599512886,-1.58253801671053
590,590,7.94398452426578,0.927529812454991,0.920717602873752,-1.2855193191295,-0.146389739441646,0.0508977044854649,1.11517617757265,-1.19386901473972,0.53271125816144
591,591,7.92924680727625,0.927147700224057,0.923496733491724,-1.26211787383503,-0.123310305258459,0.0672492996468153,2.05172300775103,-1.34885435775785,2.2558835364322
592,592,7.91522458645974,0.926423750946164,0.926025779289759,-1.24653344909761,-0.113399044372856,0.0908030560169293,3.25016598472653,-1.48069301075463,2.14214619093638
593,593,7.90202455468655,0.92535711578098,0.928294954645313,-1.2410545198886,-0.12916092645661,0.122767300184463,3.21723193435201,-0.571935960509105,1.3733581931609
594,594,7.88932542286101,0.924079441317812,0.93048895178738,-1.24478940626012,-0.145612438390335,0.161910348168158,2.49949195462884,-0.943795127734859,1.1475741249991
595,595,7.87697091398507,0.922596321551012,0.932610824458293,-1.2366874257866,-0.162607354834589,0.199148091357513,-0.81006633626458,-0.7526198233807,2.71580072520502
596,596,7.86480442732543,0.920911477276694,0.934662974595009,-1.22900689213368,-0.190645275866968,0.228606902465723,-0.588692948076423,-0.109777654443364,2.63552159046979
597,597,7.85266911944492,0.919027115446698,0.936646552772634,-1.22573637066776,-0.207283140645234,0.245690491116429,0.566616169698521,0.00973383114285325,1.28811847571859
598,598,7.84057701144191,0.916823848604265,0.938604851408148,-1.22275278351294,-0.211155115890668,0.249530519164236,1.42204282566353,-0.0298094924707181,-0.0189367382235975
599,599,7.82863182870919,0.914296917267916,0.940538966808689,-1.21493317210953,-0.208964862721419,0.244585263458575,1.53459169023234,0.642900757716389,-0.933454094695313
600,600,7.81681336010789,0.911620048978709,0.942384344691924,-1.19454901673979,-0.207447629284914,0.231093683967223,1.07657271277489,1.44302751154295,-1.14914203306914
601,601,7.80510107868129,0.908967841271097,0.944073751964856,-1.16356315183409,-0.207618624671052,0.209642136387197,0.858693653895536,1.91258612676185,-1.66213218456223
602,602,7.79347429524834,0.906515725754897,0.945537191845317,-1.13735539055787,-0.213081229968539,0.186378534706208,1.24689005495424,2.28189899158581,-2.85706796141066
603,603,7.78185520876499,0.904275674196905,0.946785811379224,-1.11812846802014,-0.215059539083922,0.16128278101667,2.04958661019523,2.28083206444824,-3.84088700496705
604,604,7.77025405468475,0.902129535931614,0.947866102318095,-1.10035365449514,-0.208080616840366,0.134818271358343,1.31032020624513,2.54546443914427,-3.45804697320961
605,605,7.75878212173606,0.900057200849573,0.948758491871689,-1.07688772513037,-0.192248577458475,0.105840675577604,0.0342267214387006,1.77320417762182,-2.86645328481026
606,606,7.74755071601053,0.898037576725619,0.949442201712607,-1.05452566922021,-0.18283853556353,0.0770590082497246,-0.342555282847628,1.41633724031203,-2.48624370290472
607,607,7.73667125669888,0.89604897983192,0.949895087012256,-1.0344707614232,-0.1847054079386,0.0500249857167928,-0.417783897052627,1.00567281295458,-2.21328817056424
608,608,7.72630275383441,0.894145886457842,0.9500900849811,-1.01851325482221,-0.190359162132344,0.0265251698733414,0.00444666782194282,0.5591921596631,-2.14110846378671
609,609,7.7163690883015,0.892339049451866,0.950042700479434,-1.00401442351222,-0.198714495003961,0.00525448260986113,0.410745454396645,0.107624846946122,-2.11999819985404
610,610,7.70662862357873,0.890542048867829,0.949793626626363,-0.98910269052603,-0.20756142760122,-0.0150180438239909,0.140579885224165,-0.162771601297412,-2.00015676140015
611,611,7.69683885039786,0.888669570532406,0.949383737093658,-0.976165838992911,-0.215600340847784,-0.0341057953189395,-0.275233752710011,-0.543797594550738,-1.97912395632719
612,612,7.68675653258514,0.886637015806789,0.948854470017211,-0.967924172889984,-0.224901929219445,-0.0525706440352375,-0.522362046212752,-0.817380121437253,-1.82058978168585
613,613,7.67633872220495,0.884342784625216,0.948180590437226,-0.969431486891806,-0.240870442157075,-0.0703363481172792,-0.372081073543509,-0.779914880595493,-1.72428215170662
614,614,7.66574700880913,0.881841154138138,0.94734279834404,-0.97975925293716,-0.265442969050232,-0.0871698475524456,-0.209706606383768,-0.665794005171055,-1.5699148989195
615,615,7.65504631640175,0.879284103961186,0.946389014220728,-0.993511418940697,-0.291229038994335,-0.10245597764179,-0.250958140982754,-0.785221061421942,-1.22123233495034
616,616,7.64430279676662,0.876826879601988,0.945361958462245,-1.00773756022738,-0.309296100531359,-0.115100732448645,-0.16584575053195,-0.926058718495333,-1.1205399968131
617,617,7.63358252828412,0.874627686610599,0.944298463877124,-1.01952109783313,-0.314199870161412,-0.125479021100286,-0.571785540989231,-0.817132550667786,-0.88088367185693
618,618,7.62296256171767,0.872700663071061,0.943163935183834,-1.02827581096354,-0.30554226636471,-0.13527609003736,-1.2890946911854,-0.759396753331175,-0.560528509726026
619,619,7.6124044606507,0.870943583957714,0.941936908611914,-1.03339956089512,-0.290826986574934,-0.146462481558724,-1.25491880795092,-0.539457778080199,-0.380226193654557
620,620,7.60179875099648,0.869344190588141,0.940661229290419,-1.03593644547123,-0.275652445720034,-0.158814389521011,-0.952802069603473,-0.312926840660688,-0.604151942197343
621,621,7.59103221771568,0.867893152592045,0.939369860503344,-1.04330065447448,-0.260036805405109,-0.169218335434561,-0.457404319282343,-0.0345725615236249,-1.14137122443173
622,622,7.57998680742851,0.866583205514884,0.938086780323407,-1.05697792057083,-0.237878162164771,-0.176267628221074,-0.397891458352404,0.158128628410835,-1.52769051639619
623,623,7.56866192419737,0.865533117083709,0.93675751702921,-1.07901323863242,-0.212265563199382,-0.179191549397267,-0.167112783364801,0.819437564962216,-1.5404457279568
624,624,7.55713019361651,0.864755188559976,0.935350413272514,-1.11251284642626,-0.177596195268957,-0.176407306067672,-0.132214686001418,0.50520488389504,-1.17732355431796
625,625,7.54537987600021,0.864078061698198,0.933918542848479,-1.14763589952155,-0.164405142694189,-0.17036365228563,-1.34287929034888,-0.281097461392629,0.864848645070565
626,626,7.53339960486904,0.863325249190483,0.932515005936876,-1.18067262202758,-0.177085731784376,-0.163108148797325,-1.41966812585571,-0.0506554443630309,1.96831240945197
627,627,7.52117887549212,0.862317495771806,0.931194152902332,-1.20438965219948,-0.189174794787474,-0.156429281967338,-1.93953605464022,-0.725184206826305,2.03233173835647
628,628,7.50875389129768,0.861033229744277,0.929900995965218,-1.22985516789298,-0.187456661540512,-0.145975834972142,-2.29812378927432,-1.37016082933554,1.20311906496478
629,629,7.49613113415781,0.859587716338862,0.928600805396425,-1.25337484486736,-0.190620831062597,-0.133765075815161,-1.99749645235251,-1.06181955024047,0.834848205491716
630,630,7.48325695288511,0.858008060236479,0.927379547189818,-1.27284724134111,-0.201902328909977,-0.119420306729357,-1.58446883731061,-0.809897421577945,0.532663217303742
631,631,7.47007606068304,0.856321234630487,0.926317591557571,-1.2869153256784,-0.215210284250922,-0.102529006418379,-2.02820560767296,-0.755557766412129,1.1775722758205
632,632,7.45653046943459,0.854552856046124,0.925487759009019,-1.30471886929272,-0.223606250448008,-0.0787217573523039,-1.88442657957571,0.164788599485377,2.27058717478555
633,633,7.44237929507389,0.852660299064272,0.92489696633968,-1.3279457340683,-0.234489746178116,-0.0433013192221978,-2.16761465986423,1.02762958222538,3.61241111260742
634,634,7.4276612722396,0.850627330931582,0.924496795201497,-1.35314072965271,-0.247280786892824,0.00063193435203384,-2.23971451165284,0.581100104636198,4.35745149224286
635,635,7.41273617836957,0.848518443824755,0.924273236716828,-1.3766936619428,-0.259381677368379,0.0469123925015541,-2.13844270018112,-0.559030544311884,4.25512436654602
636,636,7.3979636046481,0.846397863676061,0.924212615068438,-1.39736166183009,-0.27055149259105,0.086208356340842,-1.17568189149404,0.264056797329174,3.84030941122028
637,637,7.38370266919757,0.844329401522941,0.924301879859426,-1.41308726368506,-0.276394748360924,0.111579997875041,-0.551569391620081,0.29136860580717,3.25849898412664
638,638,7.37004589488632,0.842243749165672,0.924528375317094,-1.42232200740084,-0.282644837931543,0.116319157610235,-0.185759772799395,0.0785319904851934,2.57265301086623
639,639,7.35675235978764,0.840100389854919,0.924910961607676,-1.42758978194875,-0.294831136422584,0.107238776154132,-0.478954515046744,0.0245934669624631,1.56893592025565
640,640,7.34368001215817,0.838004920888759,0.925482583859697,-1.4258828844973,-0.301018115800878,0.0902426728738493,0.573380279300482,-0.15774804364781,-0.373007898980541
641,641,7.33068711135123,0.836060855031236,0.926271268443552,-1.42351429125031,-0.285361038163954,0.0731738704298119,2.09022113831706,-0.257940153149292,-2.16025169721301
642,642,7.31763336631176,0.83436922921269,0.927299484560715,-1.41509112734436,-0.267411979623857,0.0643428801158553,2.92236725943555,0.419756260875566,-2.30186605701663
643,643,7.30440505743647,0.832967880033999,0.928637416917834,-1.39576115045932,-0.254972382053502,0.0581736207256256,3.38241799459734,0.39135492374062,-1.60354446814608
644,644,7.29109647950433,0.831784357884659,0.930277331067139,-1.37043647963589,-0.24723496799151,0.0508620668869334,3.6679544351012,1.0522160624412,-0.994218469995631
645,645,7.27788179961147,0.830753263470805,0.932117456967729,-1.34232649540991,-0.227981480389493,0.0490413077418776,3.24966035826782,1.22366737621549,-0.449783915764065
646,646,7.26493578077239,0.829811361357778,0.934050004286002,-1.30882863527273,-0.196038903591323,0.0553085735464057,3.19454181723713,1.07427424413406,0.409333078212356
647,647,7.25243341576765,0.828898334120701,0.935960761822815,-1.27515772744552,-0.15667724028276,0.0738911757741239,2.87248177439892,0.767698383444929,2.1552690018124
648,648,7.24050083940679,0.828024601543227,0.937873623829796,-1.25045899238326,-0.121290768026863,0.113128306520287,2.12675017544371,0.38867136259715,4.41392246533276
649,649,7.22902469632834,0.827232228041565,0.939862731785974,-1.22613089522153,-0.0952012019679248,0.16701634836164,1.56913720425087,0.750882709920019,4.9552805993978
650,650,7.21782040168319,0.826510394361037,0.941883589895352,-1.20074383814091,-0.065638238884007,0.22363590581658,0.483691642722421,0.271772648802867,4.65220892897797
651,651,7.20670332990085,0.825847035529429,0.943889818255597,-1.17790979057852,-0.0295698921856618,0.271311651450421,-0.474485813121235,-0.20819050100369,3.7583554859977
652,652,7.19548874760231,0.825228304435984,0.945833187824689,-1.16006643142006,-0.00256880725198881,0.298568796199382,-0.293916515163624,0.376316717177866,1.51558742267238
653,653,7.18413290938692,0.824657125994535,0.947763530729844,-1.14035884210591,0.00699614877762509,0.302941784664268,-0.653444960232136,0.502839509374811,0.439653963626614
654,654,7.17275887225858,0.824141765224495,0.949711128915322,-1.12398375190012,0.00484245426615024,0.293242104415804,-0.156006428000238,0.232004026702358,-0.338154443122476
655,655,7.16143090238703,0.823675750685784,0.951596943227499,-1.11483081282448,-0.00710333226244293,0.274063041642448,1.17655479834319,-0.273831802679657,-1.36503056463938
656,656,7.15021248791802,0.823254154697153,0.953341244600683,-1.10784364273258,-0.0245095258329996,0.248945184554137,1.75699056376983,-0.76839441683212,-2.15052719774332
657,657,7.13916663328904,0.82287382058638,0.954863334760027,-1.10277995704822,-0.0385437699688207,0.222366785447333,2.01567275322457,-0.905210100919301,-2.85429220080081
658,658,7.12828418485782,0.822604770042176,0.956181883992001,-1.09432602255994,-0.0477240566248625,0.190750325709875,1.42903541393835,-1.16256577402219,-3.16019672809333
659,659,7.11751829732159,0.822452783469189,0.957351730582099,-1.08571842989965,-0.0596631457970696,0.150495757871208,1.20769253689968,-0.750912961312876,-3.6838722307686
660,660,7.10687517789448,0.822319459170126,0.958344603714515,-1.0800531173105,-0.0725060558335169,0.107808476171054,1.05347255655032,-0.903338867117718,-3.75513575814472
661,661,7.09636115375718,0.822105400988286,0.95913083430702,-1.07460496663121,-0.0850816314758788,0.0676252337828957,0.730060744704867,-0.944014545848064,-3.73084523034353
662,662,7.08598276317823,0.821709681411377,0.95967939529734,-1.06821047269805,-0.0944329260943995,0.0329415582569677,0.579146332615011,-0.791571687672024,-3.78914807648222
663,663,7.0758310763925,0.821059488833868,0.95997251747257,-1.05612544516717,-0.101028019869632,0.00391241092396131,0.173834466507963,-0.676777589479784,-3.45027270414997
664,664,7.06589795077393,0.820223299098033,0.960032987996642,-1.04118872638143,-0.107591518518172,-0.0222046176872769,0.128113446684882,-0.393862022029043,-3.25555541083294
665,665,7.05604149997126,0.819310004334393,0.95988930664614,-1.02296286503496,-0.113175368553552,-0.0453732093736553,-0.420906609695005,-0.308199115348446,-2.89006691407061
666,666,7.04611999014483,0.818427653404471,0.959569307657528,-1.00607214471016,-0.115437541253456,-0.0667648028375815,-0.984387956882877,-0.189925280646243,-2.40962896064305
667,667,7.03599191244324,0.817683798135234,0.959100319224951,-0.99625720581619,-0.112900916629074,-0.0871717728193496,-1.42438507983461,-0.289486655681275,-1.78230652599862
668,668,7.02566019547746,0.81715838071023,0.958499836932444,-0.999632441416448,-0.104984831756446,-0.106103868295137,-1.24273034784226,-0.0311116766967527,-1.44077400446981
669,669,7.0152191019609,0.81677860670535,0.957756542374636,-1.01475865809973,-0.090029850259738,-0.123010620182122,-0.866556020275874,0.142679279717919,-1.48744504417536
670,670,7.00466559634718,0.816422870666469,0.956852417924968,-1.03735772628939,-0.0731728357914589,-0.138198316758549,-0.501463015799272,0.326193440171993,-1.6920361638217
671,671,6.99399770406467,0.815969825509923,0.955766273696159,-1.06248552811433,-0.0612006351755098,-0.151713904866988,-0.320934618177576,0.476605805622818,-1.97248858928093
672,672,6.98321389416648,0.815298583755703,0.954473339800641,-1.07933562709512,-0.0567230714938442,-0.16451553751773,-0.779028854787002,0.508325078833325,-1.97365174252245
673,673,6.97236221186751,0.814414588758475,0.952948143234142,-1.08772549219618,-0.0575591208390583,-0.17793256523563,-1.31895075461147,0.401602072565198,-1.88273783274148
674,674,6.96145116685782,0.813402504451478,0.951217103187437,-1.09226409217805,-0.062474173560807,-0.191275305727749,-1.51226852377219,0.0838857403482792,-1.66068158020408
675,675,6.95041840045166,0.812257000557224,0.949318389522728,-1.09652017578036,-0.0738331974508094,-0.204166568677303,-0.965988427397909,0.164218735718993,-1.74528551910802
676,676,6.93919674803452,0.810966464675407,0.947273519031446,-1.09689506988569,-0.0883664521349023,-0.216519608827876,-1.23485005065692,0.261882136902635,-1.50341009241884
677,677,6.92771228360921,0.809513263525297,0.945089956096353,-1.09560251149134,-0.104580234897112,-0.229452304910535,-1.15147786859789,-0.470108355947567,-1.44193074478598
678,678,6.91583267364663,0.807762642254642,0.942649033841951,-1.09980193553792,-0.122908056551638,-0.241811644138505,-0.512081608555456,-1.13705529391394,-1.56192779764704
679,679,6.90360168810217,0.805718325907342,0.939926271982298,-1.11372702754788,-0.150330331615444,-0.250584862171065,-0.351911091684499,-1.74309740531203,-1.35623632218086
680,680,6.89120367085548,0.803569586132337,0.937062617332049,-1.14094084185408,-0.170219123872735,-0.252842291199417,1.08496295526615,-1.99575895636125,-1.18013922697784
681,681,6.87882247225696,0.801508356689501,0.934198942481895,-1.17909698300544,-0.16782232478641,-0.247159718790659,0.20503574407863,-1.63359546124444,1.59060070132363
682,682,6.86664260462947,0.799728601254245,0.931477368327384,-1.21191548891538,-0.165829911842569,-0.236345558430421,-0.731826239763761,-0.7942187676331,1.81711280849609
683,683,6.85483968343357,0.798390609062735,0.928876745900525,-1.22586648515418,-0.168854482809713,-0.221041742493143,-2.04104851734823,0.114386218528888,1.05412920666856
684,684,6.84329202308528,0.797369841439908,0.92630604652862,-1.22291725433329,-0.154463571103425,-0.201653523093658,-3.07215801854348,-0.0249624890851328,1.71911755745108
685,685,6.83173874193638,0.796431716410358,0.92380323150408,-1.21562933576975,-0.13608656696413,-0.178940044036571,-3.8125498360723,-0.304235913566038,2.09960303879038
686,686,6.81991405442479,0.795336525490186,0.921396909144259,-1.21534168406214,-0.122911012790043,-0.153160125888835,-2.94017878409501,-0.563289457046042,2.43300690697259
687,687,6.80754600069726,0.793839903569789,0.91910377866715,-1.22766415564136,-0.117093870281948,-0.122158465361266,-2.74440121620528,-1.16138812279716,2.97876074263903
688,688,6.79437829570235,0.791734525072132,0.916694424909752,-1.25046368894397,-0.123372792189162,-0.0884373463972955,-0.872494829494226,-1.16386915908635,3.98906713615114
689,689,6.78058970943372,0.7891811668113,0.914156672744087,-1.26371632295335,-0.141669343491838,-0.0516652994610305,-1.39354615254035,-0.697530447408637,3.78479989331815
690,690,6.7665579003302,0.786486562704795,0.911827482251941,-1.27295132665551,-0.162304727606431,-0.0120119354812849,-2.36232222552664,0.13361946633828,3.50816386723073
691,691,6.75266057243015,0.783956325060946,0.910042999897116,-1.28350996242296,-0.195510225358508,0.025925419231252,-1.92997230979963,-0.589487626760866,4.58117211713451
692,692,6.73927512112044,0.781894335416201,0.909138499816883,-1.29734604086042,-0.230821428934095,0.0533718805030205,-0.659784808371288,-0.601699875078499,4.50520358074608
693,693,6.72665385483741,0.78044974837951,0.909318678921113,-1.31261574586941,-0.245448444554755,0.0653142927237203,-0.115253207140034,0.733102780967397,3.37071444258729
694,694,6.71454070648268,0.779419317015824,0.910368680376612,-1.31861660187913,-0.232331770447445,0.0571188337631949,-0.653633532275631,1.19763572774816,2.83875922113887
695,695,6.7025526354238,0.77857722792799,0.911992135421155,-1.31979098611795,-0.211736721112032,0.0388448437297683,0.975441121444504,1.03472651216175,0.718575219990894
696,696,6.69031111372912,0.777697089196644,0.913887624682594,-1.32108096137263,-0.201881844636569,0.0204910133389684,3.35681221772244,0.771129899128675,-1.2729808655475
697,697,6.67744278239195,0.776552802186795,0.915749288219406,-1.32091899105761,-0.199119054505576,0.00920012198274789,3.9926603217706,1.03535229511206,-2.67987589025645
698,698,6.66364506231483,0.77511581190783,0.917670516328838,-1.31516263138877,-0.193142395271374,0.00506662791197612,3.39769576342945,0.669042786871249,-2.73684497082176
699,699,6.64917431229009,0.773538448704651,0.919868598040575,-1.29539854969167,-0.179966392930302,0.00568270708231293,1.7933600571949,-0.238136594815587,-1.38401981946224
700,700,6.63449654595618,0.771868609121418,0.92221421238713,-1.26196555900344,-0.159797317382169,0.0140703073151037,0.672571626726273,-0.780161684636381,0.695356438472672
