,Frame,CoM pos x,CoM pos y,CoM pos z,CoM vel x,CoM vel y,CoM vel z,CoM acc x,CoM acc y,CoM acc z
0,0,-0.0227557561112249,0.120023750329588,0.949356073056707,0.0110873645978906,0.00908194269579387,-0.0163515418311438,-0.0649234063504087,-0.01501471645409,0.0870676076677692
1,1,-0.0224585118561582,0.120445113153581,0.949254027129247,0.0137195609368835,0.00963345435770342,-0.0149991627291008,-0.101273036442992,-0.0575629775903878,0.114714556960002
2,2,-0.0221604851777059,0.120877920083407,0.94914588316803,0.0160162353337838,0.00980801260050473,-0.0136338204502754,-0.0756200848092431,-0.0433648607958982,0.12456398187628
3,3,-0.0218628461560811,0.121305007812339,0.949040756169163,0.0180029407081316,0.010277638158446,-0.0123320969940014,-0.0429223594378866,-0.0471162610821862,0.162017501009861
4,4,-0.0215667657278165,0.12170921406663,0.94894776653819,0.0194795425149701,0.0107931311229707,-0.0112699779562552,0.0304262543002777,-0.0702973089131328,0.166455758391938
5,5,-0.0212734155895567,0.122073377553299,0.948876040123178,0.0206202322931134,0.0107028446314352,-0.0105264376824636,-0.0188810215147021,-0.0429921816819896,0.155937323756176
6,6,-0.0209782437132162,0.122390378572498,0.948830623978249,0.020686128739954,0.0110289915857395,-0.0102353939169624,0.0163815550067844,-0.10120074690531,0.108605918587367
7,7,-0.0206804703668361,0.12267166045345,0.948805447721902,0.0206195068406223,0.0108012826951498,-0.010246854981901,0.0144363982498589,-0.0764346603303301,0.058077604624489
8,8,-0.0203869260190875,0.122927906213013,0.94879296211267,0.020073954828685,0.0102032879192997,-0.0104954036961259,-0.0138106681889273,-0.0777735953553844,0.0244475515580996
9,9,-0.0201044410321696,0.123169797495548,0.948785613572899,0.0195043348200565,0.00970588176970212,-0.0108693923675569,-0.0200617827229059,-0.0980451027617298,0.0211777017181207
10,10,-0.019839845673084,0.123408014631249,0.948775844119524,0.0190874892048454,0.00955446383257579,-0.0112628910228859,-0.00979874873120116,-0.0849409632608562,-0.0402427638323363
11,11,-0.0195952220944048,0.12364057106835,0.948765271474778,0.0189774854945995,0.00977177526479765,-0.0117938920719877,-0.0132796124899727,-0.128321331847876,-0.0172743365580347
12,12,-0.0193660174580003,0.123860345473506,0.948758938019995,0.0187779392347365,0.00970412263488226,-0.0124928060927776,-0.0197013557978097,-0.0803872990040549,-0.0549917072502185
13,13,-0.0191491089903008,0.124070315305305,0.948754417758925,0.0182916624178421,0.00981621092347043,-0.013250590291669,-0.00892232599292879,-0.0492497043585672,-0.0499794995417511
14,14,-0.0189413735802704,0.124273458320032,0.948749282186961,0.017549916144771,0.0100108452527387,-0.0139221347383194,-0.000600405982412514,-0.115461058809056,-0.0445058680448043
15,15,-0.0187396879138299,0.124472752551901,0.948741100479795,0.0169303609606094,0.0097221623580228,-0.0143814619590152,0.0151847310802922,-0.081529027666638,-0.0564431169411664
16,16,-0.018543412776497,0.124669783831742,0.948729824701678,0.0162453646721122,0.00938794206225374,-0.0145775377169306,-0.00292429013196595,-0.139209251710192,-0.00918690832554324
17,17,-0.0183546298750741,0.124862566052974,0.948717073591414,0.0155916322568124,0.00871824153332283,-0.0145818630786933,-0.00646252240623159,-0.155040522281153,-0.038119219160185
18,18,-0.0181742971478748,0.125048719524893,0.948702914713936,0.0146641623633323,0.00846030775054937,-0.0145004560951253,0.014927598911955,-0.145952543442818,0.00420413475066402
19,19,-0.0180033726261962,0.125225864804918,0.94868741527187,0.0140004326740886,0.00793977223787686,-0.0144095456688496,0.0190774141598669,-0.133250147455327,0.00194184361320598
20,20,-0.0178428143872706,0.125391622748063,0.948670642059019,0.0133173465438656,0.00758483084544955,-0.014347681120291,0.0439192731254925,-0.105962646415118,-0.013948327323848
21,21,-0.0176955727645699,0.125545060299439,0.948652420276006,0.0129865028855576,0.00743455150942504,-0.0143858214218622,0.0374816082169439,-0.103950081566854,-0.0167244301095873
22,22,-0.0175610085442003,0.125687762841682,0.948632703148739,0.0129099814317531,0.00702541176575728,-0.0144621749194464,0.0326107846358,-0.113565537721254,-0.0344572486201879
23,23,-0.0174346958152738,0.125821129958282,0.948611750023792,0.0128254411222743,0.00688858733763802,-0.0144977731125225,0.0352422101729618,-0.0908339098889553,-0.0194244868656992
24,24,-0.0173122091276934,0.125946562285597,0.948589820999839,0.0126514878215723,0.00616232553635627,-0.0144969536322924,0.0458390375504588,-0.0842134815513155,-0.02556276702873
25,25,-0.0171891234994917,0.12606546148966,0.948567176812406,0.0122698025193813,0.00545503463769637,-0.0144109623466886,0.0236176543611914,-0.0710419712442259,-0.0225287218370516
26,26,-0.0170670952280636,0.126178408298031,0.948543117825608,0.0119336355830945,0.00494264214910543,-0.0142292204343311,0.0650530681049328,-0.11535378783264,-0.0358489723652502
27,27,-0.0169490753852938,0.126284471370756,0.948517470544781,0.0113037844373422,0.00445767632101884,-0.0139656005887442,0.0711117242698195,-0.115861041650953,-0.0231240448696995
28,28,-0.0168325809603076,0.126382783603385,0.948491285223006,0.0108682046245591,0.0037598942628016,-0.0136524269072321,0.0569502868184457,-0.100202698783468,0.00886219648234161
29,29,-0.0167151281075108,0.126472475857597,0.948465611821981,0.0105144499828864,0.00294131017542553,-0.0132910033449435,0.0154080382174634,-0.0924882948162888,0.027849479475101
30,30,-0.0165942322046937,0.1265526770214,0.948441500061514,0.0107373972259568,0.00236027577534375,-0.0128890518143316,-0.0301429503805941,-0.105493354783857,0.0240207590819756
31,31,-0.0164713105866406,0.126621100391238,0.948418826281492,0.0113041720098114,0.00163987443104951,-0.0124827059517519,-0.003955735411239,-0.0879831929435691,0.0531469143089759
32,32,-0.0163480186347608,0.126678324894977,0.948396890240086,0.0123289372028477,0.000908963423592973,-0.0119779465107374,-0.0194344186332939,-0.108386771154002,0.0356315656031458
33,33,-0.0162222288354178,0.126727776587231,0.948375876894205,0.013402911361027,0.0002210646667758,-0.0114620218963455,0.0112727446060325,-0.120825170630045,0.0204301655253732
34,34,-0.0160918142624547,0.126772881614373,0.948355971384463,0.0145857918828089,-0.000621584529556531,-0.01097930284031,-0.00363161427773168,-0.100011111906268,0.00650248571676458
35,35,-0.01595464842905,0.126817066213278,0.948337358954187,0.0149446476817914,-0.00129426041947534,-0.0105192479647814,-0.00238778716798767,-0.111120117259735,0.0117683214892832
36,36,-0.0158101932647774,0.126862614575281,0.94831992608812,0.0153966004340127,-0.001925497589283,-0.010200139652679,0.0158701704343782,-0.0793211308967608,0.00665900716361055
37,37,-0.0156598668820503,0.126907241263594,0.948303549330045,0.0153520120889878,-0.00225136287178208,-0.00991673931550953,-0.0197560498174173,-0.0921365311101602,-0.0181484694682228
38,38,-0.0155044769512735,0.126947518354352,0.948288399239415,0.0149552197746114,-0.0028289820679709,-0.00968281198021516,0.0376523318151264,-0.0725428735688085,0.0229275394128701
39,39,-0.0153448307787618,0.126980018068424,0.948274646556482,0.0147921855382129,-0.00288647642220957,-0.00941401273058118,0.00835639925439877,-0.0899256473917023,0.0344496692707024
40,40,-0.0151817354688521,0.127001312458326,0.948262462400612,0.0146632171994128,-0.00325003716668088,-0.0090752015146237,-3.37475131378407e-05,-0.0798074090444503,0.0371234005330263
41,41,-0.0150134619938438,0.127009400649763,0.948252425549616,0.0147737235765882,-0.00390652925253144,-0.00859355320814312,-0.0161986066342922,-0.0798849147803827,0.0533274773827009
42,42,-0.0148394717450796,0.127006565590278,0.948244423929424,0.0147875696802618,-0.00465292076505573,-0.00800597427842061,0.0369934543979748,-0.0740772463084442,0.0806261975490248
43,43,-0.0146623576061896,0.126995805259199,0.948237591742648,0.0152084066523159,-0.00493164009157115,-0.00738414761386931,-0.0533153260084191,-0.117630757598479,0.0317724804245686
44,44,-0.01448471268189,0.126980118980331,0.948231061242147,0.015849890969262,-0.00562199329899032,-0.00692509473412884,-0.00492976401292712,-0.0841987358151851,0.047569574237301
45,45,-0.0143091302756087,0.126962507771151,0.948223962724919,0.0163064195930839,-0.00589381613320151,-0.0066767496566415,-0.0385079295152261,-0.0789378647208211,-0.00263703941291696
46,46,-0.0141331031219941,0.126939851205429,0.948217047457059,0.0168712817200738,-0.00601867300804661,-0.00676876020338611,-0.0310796756052553,-0.0777682358796755,-0.0251728137508715
47,47,-0.0139549029403908,0.126910149107249,0.948210893475196,0.0171917124556348,-0.00615350232471343,-0.0071328180896374,0.0111431567539027,-0.0632618992682458,-0.0361832237051575
48,48,-0.0137782913475578,0.126878084092079,0.948204370494097,0.0173047049627257,-0.00619547287533209,-0.00761065383173983,-0.0211258620680799,-0.0550895159476821,-0.0440389870559083
49,49,-0.0136070294826009,0.126848338582074,0.948196348660664,0.0171518023306636,-0.00620827187791517,-0.00807180107380146,0.0054156705867583,-0.0351664684726514,-0.0572582782136753
50,50,-0.0134448779669332,0.126825594673434,0.948185698435981,0.0167867158826748,-0.00642111378666484,-0.00843645651984103,0.0432697180864668,-0.0450583630590423,-0.0314767430742067
51,51,-0.0132945697213593,0.126811932268505,0.948171580109429,0.0159350002192322,-0.0064479222476555,-0.00864993012689117,0.000953830320572352,-0.00766189532756926,-0.0489200736689329
52,52,-0.0131535970611685,0.126804230263446,0.948154746643311,0.0151555817472068,-0.00578128440848081,-0.00884142189220044,-0.0371122422455512,-0.0837229820963332,-0.0350638564812138
53,53,-0.0130178595639858,0.126799368714944,0.948136457786324,0.0141542391203113,-0.00532072601651177,-0.00895996901919754,-0.0297874705750268,-0.0275778478793665,-0.0348924525426004
54,54,-0.0128832571225877,0.126794227367787,0.948117973270511,0.0133314079736722,-0.00478206234753733,-0.00901751239146651,-0.0211425694551329,-0.0498470076632206,-0.0146607972553456
55,55,-0.0127456899191357,0.126785685743119,0.948100552822619,0.0126311523807139,-0.00459377412309899,-0.0089644341263036,-0.033960269118565,-0.0206142349352379,-0.018412546651739
56,56,-0.0126051364548224,0.126772666085048,0.948083764432815,0.012431738953557,-0.00464657839643864,-0.00879499276669603,-0.0139931692123613,-0.0296754872712427,-0.011779943329982
57,57,-0.0124643300014732,0.126757248163247,0.948066768732754,0.0125672782304588,-0.00510031572761457,-0.00852170336791113,0.029335521201914,-0.0514741452821593,0.0188974058181159
58,58,-0.0123233031000914,0.126741048067557,0.948050214331965,0.0132884341809561,-0.00512152575474106,-0.00814919061738267,-0.0320202874218929,-0.103904912457403,-0.0167754328873339
59,59,-0.01218208840722,0.126725682238955,0.948034749498443,0.0137558301181372,-0.00562044854804956,-0.0077592773871885,-0.0395971803748198,-0.0984414538096341,0.0223315888008606
60,60,-0.0120407186838055,0.12671276739322,0.948021022101537,0.0139325334639457,-0.00571991315217237,-0.00731536717535676,-0.0248749948641858,-0.103771297169356,0.00872988386151198
61,61,-0.0118991334340115,0.126703671210622,0.948009219295239,0.0142066090999484,-0.00574517544555207,-0.00684533710141132,-0.0272109840995679,-0.0696709125432022,0.0261262055972081
62,62,-0.0117573108588371,0.126697316406462,0.947998908815414,0.0138494590352587,-0.00564172392298267,-0.00632895546360421,0.019763147101153,-0.0703930748932704,0.0512856145469609
63,63,-0.0116153417861655,0.126691652329709,0.94798980918969,0.013893188008753,-0.00553330425576921,-0.00576591516756045,-0.0812903150322427,-0.0647397929432918,0.0354289362407033
64,64,-0.0114733171343605,0.126684628207804,0.947981639061893,0.0136853580820684,-0.00541822153125961,-0.00524709714435227,-0.0536901657261025,-0.0718551350684649,0.0275558980886563
65,65,-0.0113313279401291,0.126674193188529,0.947974117204349,0.0136927308032533,-0.00523562843071798,-0.00481338891578363,-0.057679408563662,-0.0422484560861183,0.0104920342182982
66,66,-0.0111896503771823,0.126661594466133,0.94796713727088,0.0133321376667686,-0.00499615476653667,-0.00450041369846626,-0.0265894240626063,-0.0966714954444556,0.026664203391314
67,67,-0.0110482237935691,0.126648199514354,0.947960886710705,0.0134419279896594,-0.00552630251914431,-0.00423451967097013,-0.0554171026351297,-0.0385240523490569,0.00513796566948807
68,68,-0.0109066341324776,0.126632137845366,0.947955525062217,0.0131435559225012,-0.00561221068118909,-0.00405225142938392,-0.0357738988929892,-0.0778752837745385,0.0285287627522569
69,69,-0.0107644674354816,0.126611538911783,0.947951211801718,0.0134018594671787,-0.00608632428460127,-0.00382772114560241,-0.0557643458375195,-0.0859793413133977,-0.00704395500162805
70,70,-0.0106213098399424,0.126584532081829,0.94794810635378,0.013404879978329,-0.00640986781247236,-0.00360579090594246,-0.0279636577688603,-0.113420444727229,0.0173817336891996
71,71,-0.0104774467292857,0.126549089209253,0.94794646209202,0.0135276433428114,-0.00675620283370762,-0.00335870994784944,-0.00517051135347702,-0.0812245612621129,0.0253340986276996
72,72,-0.0103331544056564,0.126506457360878,0.947946172845069,0.0136817947214625,-0.00726189116068142,-0.00307525461235284,-0.012958539206587,-0.0861796521419626,-0.00915994795737713
73,73,-0.0101880052379535,0.126459678825424,0.947946858357365,0.0138560352157834,-0.00806521353289408,-0.00279129134559279,-0.00963892553399391,-0.0839475929726961,0.0243340603127541
74,74,-0.0100415712753185,0.126411796155751,0.947948137826651,0.0140500125004164,-0.00831042371501617,-0.00251272950724852,-0.0444659543458304,-0.106218715648134,0.0177961215215833
75,75,-0.00989342427246808,0.126365852178363,0.947949629926252,0.0143201496092087,-0.00892397572942572,-0.0022822161171803,-0.0441200272884635,-0.0554232917066185,0.0317558829657813
76,76,-0.00974364094295479,0.12632146122896,0.947951485739034,0.0141545644284607,-0.00922638825665945,-0.00211249522009056,-0.00899842814403771,-0.0565564001348409,0.00998114780515835
77,77,-0.00959250637635774,0.126276595473114,0.947953958325471,0.0140259507199828,-0.00888890486530201,-0.00196378253875508,-0.0322587587779499,-0.061406837122087,0.0117783461161962
78,78,-0.0094399048346429,0.126231834543529,0.947956819256596,0.0136813017660067,-0.00867184243978122,-0.00184392249879875,-0.0421229519271157,-0.0329920150966524,-0.00729960315123468
79,79,-0.00928572069501026,0.126187757841846,0.94795984035037,0.0134354160851685,-0.00833435639198525,-0.00173104484724208,-0.0188360737398951,-0.0337532437464386,0.014087741228096
80,80,-0.00912983843820823,0.126144944550413,0.947962793639172,0.0133036404143562,-0.00805120932419969,-0.00163230920114586,-0.00459233664131894,-0.0442562397547035,0.00126158277549109
81,81,-0.00897519743520249,0.126102170835582,0.947965222912509,0.0136330286420241,-0.00852551622967933,-0.00157429090804593,0.0276159240846582,0.00680637740021522,-3.46064960448758e-05
82,82,-0.00882187466793603,0.126059050783814,0.94796728002841,0.0143510072957433,-0.00882238156818299,-0.00154294047876618,-0.00294172586492111,-0.0672342928697216,0.00468196671270521
83,83,-0.00866546116437785,0.12601742036283,0.947969648932948,0.0150835437625893,-0.00899415928038533,-0.00149329159109927,0.000698051658326305,-0.0868191078701512,0.00851322007452756
84,84,-0.00850154798747095,0.125979115621255,0.947973013046807,0.016177485019114,-0.00892775657893263,-0.00137609079788419,0.00697606598782679,-0.0664270152681345,-0.00622229264425531
85,85,-0.00832572621811622,0.125945972751975,0.947978055122953,0.0167084674280147,-0.00867884796307094,-0.00118800349882865,0.0277442289610219,-0.0586363309395315,0.00165185160321984
86,86,-0.00814110856132297,0.125917061891284,0.947984101272701,0.0174353895860303,-0.00811226929650685,-0.000871085251714527,0.00259899480220425,-0.0593202776329554,-0.00716862817952554
87,87,-0.00795063403153333,0.125891160227919,0.947990695347373,0.0178710187456514,-0.00725737689969488,-0.000499856931871611,0.0266906500627418,-0.049498869984763,0.0653195974205042
88,88,-0.00774963364978822,0.125869663896249,0.947998844550311,0.0186194371700732,-0.00600577676154823,-3.38283915737544e-05,0.00934509491177364,-0.0358859151306527,0.0507889617654584
89,89,-0.00753343909386459,0.125853967755363,0.948009553661521,0.0198258097140351,-0.0048601035076626,0.000496718733571207,-0.0378161855307795,-0.00251852065965918,0.0413024325711847
90,90,-0.00729738217812628,0.12584546510736,0.948023824940878,0.0210328652230324,-0.00404530527298423,0.00100799749087487,-0.084959360122009,0.0426547555697712,0.0343581004005314
91,91,-0.00705180186542725,0.125851109619444,0.948042729386928,0.022172773035113,-0.00307550132760226,0.00155252239458635,-0.0518051696556145,0.0464446132787926,0.0364182247398879
92,92,-0.00679980988767462,0.125869969924468,0.948065594188635,0.0236554505220809,-0.00202868613811202,0.00226320237241091,-0.0139990548827336,-0.0387925082226491,-0.00990893973800967
93,93,-0.00652589577449886,0.12589161106959,0.948090799106547,0.0245771021698026,-0.00217059032241084,0.00287821670538568,0.0313902122067719,-0.00278890556469003,0.0422337640052139
94,94,-0.00621454753629296,0.125905597149702,0.948116716213679,0.0256152423088507,-0.00289935416227098,0.00348547944282562,-0.00540347694791178,-0.00723215044588265,0.131116524591923
95,95,-0.00585025031542027,0.125901488646228,0.948141710393613,0.0279840012905248,-0.004622610861347,0.00395935679750474,-0.0176109914531462,-0.113809617539536,0.0854019367542069
96,96,-0.00545011370971125,0.125903856259186,0.948166182128275,0.0318327152479778,-0.00580175389542171,0.00406506701692876,-0.0187124479998552,-0.216808125580527,0.00522934534894719
97,97,-0.00502446026492831,0.125919655523037,0.948191225520379,0.0365978277556832,-0.00673732385537654,0.00389146114327024,-0.101808019473179,-0.307147813581123,-0.0128639536357724
98,98,-0.00454760118661596,0.12591199643074,0.948216197349649,0.0420753531656524,-0.0082822923163442,0.00377557114016385,-0.202180114483649,-0.374331851400992,-0.00716246359565876
99,99,-0.00399386449214299,0.125843959414818,0.948240393910697,0.047852687528597,-0.0113978873198935,0.0039562844142848,-0.332159678623697,-0.378746333689926,0.0773087747365102
100,100,-0.00333758724524058,0.125678658773238,0.948263132666813,0.0537927339105118,-0.0166899723596664,0.00473053481304114,-0.525986428753434,-0.332392367553008,0.196553584874923
101,101,-0.00253925655742945,0.12541982739902,0.948300201938855,0.059196646290323,-0.0259104158505934,0.00675370871592037,-0.492521335944823,-0.324380007827232,0.284770599580022
102,102,-0.00161596149245873,0.125092230442811,0.948352093122199,0.0652118148567111,-0.0368698049880029,0.00993609405792339,-0.537255348645687,-0.393582681166297,0.333212219920371
103,103,-0.000626930564747876,0.124690671234124,0.948395532381149,0.0710827990401485,-0.0479375325618916,0.0130968653814824,-0.695350533653276,-0.465502959551868,0.364432551265133
104,104,0.000368615131969495,0.124209989934074,0.948407705451442,0.076072959227975,-0.0585398646404738,0.0151258175772927,-0.850614118469807,-0.506881100979928,0.354901621603323
105,105,0.00131145048924917,0.123644987811165,0.948366479109001,0.0777089935668524,-0.069527734854694,0.014849872702815,-0.793420956652059,-0.372716189429208,0.379501277492018
106,106,0.00217002042548294,0.122953124496183,0.948238893331509,0.0750151405696253,-0.0816671840068564,0.0117147291231612,-0.759585083387532,-0.184844181189724,0.189662898524595
107,107,0.00298386339457673,0.122138288801635,0.948042284133875,0.0691386532067976,-0.0948273722455458,0.00658320709698952,-0.824255964651128,-0.315913581311359,0.168925552282416
108,108,0.00380027404857444,0.121264703216776,0.947830725253717,0.0638319300979624,-0.105888259121743,0.000437954022967018,-1.03943881514611,-0.445750285230153,-0.251466130969142
109,109,0.00466637610510078,0.120396374566799,0.94765837752825,0.0588075772544466,-0.114387630671683,-0.00583961723490304,-1.19358680851437,-0.451944059533017,-0.419017243701233
110,110,0.0056290815087134,0.119597001105829,0.94757950608134,0.0550222031131849,-0.118759053663676,-0.0110692373072662,-1.28093803485775,-0.453800538940598,-0.513286377684369
111,111,0.00680796371597949,0.118824302031169,0.947606079538144,0.0543475153241775,-0.118686474957312,-0.0156673262259047,-1.54254721913789,-0.37986959999972,-0.670935389931774
112,112,0.00817114338765865,0.118035024310394,0.947706411337129,0.0568462769584161,-0.11934797761425,-0.02046920738775,-1.71825481553822,-0.22737395134346,-0.480964819132823
113,113,0.00953774693662654,0.117291293785789,0.947869896576304,0.0596487310143462,-0.118532491663709,-0.0247344719323101,-1.821755249783,-0.194662872006363,-0.188936479061208
114,114,0.0107262056421551,0.116655576872416,0.948086636109024,0.0601269757140388,-0.111455120876871,-0.0282684070414456,-1.49286081330429,-0.249308463011607,0.0898533923993352
115,115,0.0115540692563611,0.116190911287741,0.948347490466512,0.0573446832209586,-0.0958468575207354,-0.0307509615833795,-1.06674905800059,-0.404695050523355,0.428912138848042
116,116,0.0120306422891184,0.115885026630419,0.948683964918153,0.0541434732630417,-0.0671484299816382,-0.0334375282433997,-0.192881235738177,-0.873400935863333,0.125589486489038
117,117,0.0122719068413918,0.115694921875085,0.949113298749746,0.0547263683449707,-0.0319243182319622,-0.0364685759753828,0.0672816409029525,-0.488553305596734,-1.00530046692423
118,118,0.0122563303753676,0.115639947664824,0.949601615968997,0.0557460706137675,-0.00101259629970265,-0.0380462790401591,0.16033495808974,-0.114765909244251,-1.49626213541351
119,119,0.0119653605668993,0.11574202965776,0.950108838028276,0.0538464557947546,0.0267866018392183,-0.0362631420322883,0.246897903912357,-0.545686781474643,-1.62723153814819
120,120,0.011383568049868,0.116025494470411,0.95058846125532,0.0586228544114617,0.0456009560196097,-0.02293511193901,0.159555632689409,-0.205395735664495,-1.42555520565431
121,121,0.010336570730056,0.116702537136804,0.950992338348374,0.036876502165136,0.0655729991880231,-0.00219658349287695,1.03225543949214,-0.534589531468714,-1.35620578550152
122,122,0.0088312810642517,0.117765021267144,0.951352940891993,-0.00796955421450598,0.0792625531114338,0.0238056738452577,1.29613041391837,0.533169130662352,-0.887262522208251
123,123,0.00713000575976001,0.118903563423333,0.951733838387717,-0.0587624513826026,0.0855777647385026,0.0512388691147012,2.55351003901766,0.32987247592916,1.51649077523969
124,124,0.00550096988875721,0.119802395358419,0.952190239273845,-0.0931936411832637,0.0882229354788824,0.0742766870562473,2.14726579499149,0.639141975814947,2.13415135086761
125,125,0.00421826674002686,0.120140279530715,0.952770693449994,-0.109075142345378,0.0769686443188856,0.0897888795125703,3.07972768435793,1.69602997242635,2.91491540170643
126,126,0.0032016327157669,0.119754470314254,0.953559716867597,-0.0996567401906272,0.0451982948101227,0.101745458285535,3.53481045303236,2.06296446669198,3.02618995948477
127,127,0.00227695729386185,0.118853605061375,0.954511551414685,-0.0690214606700588,0.00345938660499172,0.112521645484073,3.22724088566789,1.42617072233224,2.38137550304681
128,128,0.00157972714764097,0.117671437407666,0.955477587789329,-0.0207931606672953,-0.033465320530108,0.120909714454313,1.94951623404282,0.54760902384038,0.720139703303701
129,129,0.00124403643274733,0.116442585181018,0.956311304559188,0.0299431560797163,-0.0617171391980979,0.125285334550239,1.12597200760174,0.453098127170153,-0.590529223966715
130,130,0.00140294848848191,0.115402270669252,0.956868181416649,0.0665261477032839,-0.0775707440958886,0.121828021074458,1.15967632841383,0.692737832969325,-1.08862898573324
131,131,0.00221077763931192,0.114460007624014,0.957166218070331,0.0858350120358329,-0.080838519532606,0.10709338626005,1.12104130140177,1.16020556828197,-1.53286939096206
132,132,0.00357861821838747,0.113459674685547,0.957302538638159,0.0966286919273562,-0.0780902930335335,0.0836210018940501,1.01259282597796,1.2438038584466,-1.70722047465297
133,133,0.00527338577697311,0.112538401676861,0.957253283317305,0.102883514880714,-0.069198228717678,0.0554954119189683,0.856934268561752,1.01440286261926,-1.85930402258821
134,134,0.00706135013432578,0.111832621205362,0.956994646566192,0.108231076736704,-0.0535672918161864,0.0272375494327243,0.476998226328827,0.81913830088081,-2.26566062339788
135,135,0.00870864925834723,0.111477473502696,0.95650240279482,0.113513104029773,-0.034710423415341,0.00268286040899434,0.0945146689956631,0.704516415466842,-2.64363269365471
136,136,0.0101788351766456,0.111531653760343,0.955680889001911,0.114614658333067,-0.0128960755556125,-0.0216961533965431,0.00309661952196422,0.790735987302541,-2.6220841878378
137,137,0.0116230282777555,0.111905216146629,0.954553982088321,0.110174299978859,0.0148992961981509,-0.0484298729448363,0.0337206502828283,0.913243760429927,-2.34470655806016
138,138,0.0130894338204614,0.112508813621127,0.953276184621552,0.104105662294848,0.0465209517171669,-0.0737969037825497,0.0408848180585182,1.01496026142866,-2.0782526088128
139,139,0.0146271835471805,0.113252230669564,0.952001715776044,0.101215436361265,0.0754611082614666,-0.094623905295816,-0.172975329815136,1.14800607690029,-2.02066470358348
140,140,0.016286464047269,0.114044163636049,0.950884865764764,0.101588289745821,0.0952541046243376,-0.107683163126956,-0.12271859221055,1.29213519669224,-1.21581776996272
141,141,0.0181262111386021,0.114965861367359,0.949834479030278,0.10755830365801,0.109193182045985,-0.109282675097986,-0.208553673919669,1.31422113761517,-1.48672437310228
142,142,0.0201090000629103,0.116071620884114,0.948767680472547,0.117475841212161,0.121541509023665,-0.102520308800388,-0.293229909415595,1.18926071111261,-1.03326979156309
143,143,0.0221438162842421,0.11723314455789,0.947843449042118,0.129148989802499,0.125208819581728,-0.0888059872677746,-1.0975331396303,1.14115236932236,0.676688671224794
144,144,0.0241422800741857,0.118329142948183,0.947207557126978,0.139390320352611,0.125361511621846,-0.0699792690460665,-1.36530188118691,0.144925823602806,0.0967397541061495
145,145,0.0260167288942843,0.119244349702955,0.94699270507832,0.146555136416947,0.124037989333617,-0.0612252659212005,-1.55721200718363,-0.323887877730898,2.31750550397406
146,146,0.0280557626620335,0.119946745300181,0.947420831573449,0.163572635579466,0.100596431516175,-0.0582164567673303,-2.0934426557539,0.427229285425314,2.10699202155714
147,147,0.0303127015675921,0.120519699154258,0.948402147613346,0.175951850919978,0.0647877533201207,-0.0601646920053487,-2.59941550334283,-0.386397521843856,1.66915570690992
148,148,0.0323494017371415,0.121019806460491,0.949592086881934,0.180397088369545,0.0296333539681141,-0.0647327326095297,-2.08155918154039,-0.571713899165221,0.118313976610896
149,149,0.0337330605894485,0.121500171854185,0.950642537588207,0.174354877812403,0.00117432424503564,-0.0706597331188897,-2.00414019046185,-0.471440067956878,-1.56336972525129
150,150,0.034036302531787,0.122011715021045,0.951201239875077,0.153709167319224,-0.0134522017901591,-0.0732154694699523,-2.45524206107864,-0.984182789460782,-3.52652294164556
151,151,0.0328921028067761,0.122586532248018,0.951038903542059,0.0877317882436459,-0.0169841941100081,-0.0683798946744111,-1.8452410101684,-1.85008473347095,-3.30100374578507
152,152,0.030582585736318,0.123183853947314,0.950393535550479,-0.0160197593375713,-0.0186450244160214,-0.0694230445343092,-1.03064595795304,-2.95870919915216,-2.58960129351265
153,153,0.0276617515346939,0.123748798835769,0.949603901060083,-0.11660442313411,-0.0161987709498215,-0.0707456805919872,-2.22384524743214,-3.11417159570318,-2.53695380879973
154,154,0.0246906965897445,0.124232049632377,0.948997956154209,-0.198759922784655,-0.0127097501027897,-0.0677209872560223,-1.45084412888777,-2.95813709958403,-1.50486143439498
155,155,0.0222379002983364,0.124588294878627,0.948893380697134,-0.259834681538329,-0.00864455815620723,-0.0555698362363108,1.35298996835805,-1.45850889587445,3.01758160713399
156,156,0.0201932265586297,0.124729075519213,0.949382142175635,-0.297140066057841,0.0347645881515343,-0.0278578549097322,2.21310897240418,-1.75489667521913,7.39750238470299
157,157,0.0181859529743395,0.124691940945417,0.950237938525309,-0.286650159297391,0.0799887289999868,0.0169140869475471,0.50991814382174,-2.22991321817454,5.15078673302552
158,158,0.016398076377054,0.124618732491242,0.951294377906625,-0.255851429390172,0.105873356780756,0.0684846760765975,1.55216532154257,-0.725926677953275,2.16385099354706
159,159,0.0150124478211579,0.124647303252967,0.952384739159451,-0.216981501768046,0.125942453062464,0.115480092705135,2.00162118096189,0.303617899531915,1.80823764407045
160,160,0.014213211575896,0.124912701495732,0.953342712148887,-0.170080788991236,0.142148599678798,0.146521852163009,-0.019368169220076,0.0447881609129009,1.12741932720047
161,161,0.0141785147693852,0.125509845419903,0.954206110344513,-0.126572029437603,0.149579298034686,0.155797827051037,0.882436603616857,0.360798681686501,1.0783587930307
162,162,0.0147882714534113,0.126345660381422,0.955079559322542,-0.0763422577791822,0.141504005464915,0.1506979659602,0.757137467577679,0.836539037871207,0.336118293696893
163,163,0.0157790954810667,0.127271940315551,0.955899494105211,-0.0281308193270954,0.126627791204047,0.137140119895981,0.999400585102034,0.924092812254124,-0.0589202713285513
164,164,0.0168869855883637,0.128140291133514,0.95660475390228,0.0127303334698105,0.115383892606135,0.121438795773538,1.75795605104724,0.501530348782209,-0.374876610421176
165,165,0.017847871965442,0.128802360675977,0.957136245795917,0.041043108316862,0.105845044479939,0.107730848869496,2.06002066321206,0.151306243651304,-0.801069225670498
166,166,0.0187029417550292,0.129308172590296,0.957520851984446,0.054086941618514,0.0965943987765703,0.0965819320648111,2.50280862275499,0.398416135072328,-0.649757280364147
167,167,0.0196229298021409,0.129757622039613,0.957807934254487,0.0589825361276488,0.0831517445781226,0.0841163289243695,2.16815917602658,0.241724640053439,-0.882009908293321
168,168,0.0205390042374457,0.130077252398376,0.957972169900366,0.0602375933268722,0.0654440344683539,0.0695450105166724,1.60397464152278,-0.129741613823841,-1.38717343970837
169,169,0.0213840202642577,0.130192330909307,0.957985565554565,0.0601754364841049,0.0438824870683212,0.052306324401654,0.991748112067516,-0.600264396435947,-1.87950819653284
170,170,0.0220929216227891,0.130026111201773,0.957816336162178,0.0588143362206548,0.0218898093169839,0.0320444294046776,0.655598901937429,-1.44197812743535,-2.0969336275431
171,171,0.0226151189005504,0.129530197572149,0.957429919845609,0.0472085695429872,0.000807410580487733,0.0119136603097391,0.252793067447734,-1.37812239286562,-2.10164269042541
172,172,0.0229904766610472,0.128756015415002,0.956859557951196,0.0300431866721227,-0.0216415537497038,-0.010792769927497,-0.217041920950608,-1.3520771962844,-2.23236904340076
173,173,0.0232929667826705,0.127773142729804,0.956166998705925,0.0106110066098194,-0.04210111109549,-0.0333488837614556,-0.603624407450942,-1.34618395676096,-2.09896472709174
174,174,0.0235988557512888,0.126648833486128,0.955406867172297,-0.00524220926887597,-0.0635307773351525,-0.0529672212905166,-0.658075134829624,-1.17341431385681,-1.78327272982509
175,175,0.0239860661018991,0.125448862629353,0.954627741634814,-0.0124338650669805,-0.0846586512292974,-0.0683599977807178,-0.93234186880422,-0.742801677664595,-1.58766847834982
176,176,0.0247033555278392,0.124016079666144,0.953793305104394,-0.0099916485575939,-0.0992683192059055,-0.0779063537750676,-1.55964434489856,-1.13859461572879,-1.87847581162982
177,177,0.0256987489085832,0.122302270365356,0.952874064768246,-0.0108757467351289,-0.113750535260531,-0.0810241486948953,-1.42608646613678,-0.860684064197811,-1.48252365728444
178,178,0.0266009405569711,0.120538374650948,0.951924347491018,-0.0059323245613863,-0.124951482108179,-0.0833211410828369,-1.66149908006536,-0.562667803012934,-1.982747679565
179,179,0.0270399436335321,0.11895741011592,0.950996678940938,0.0134297281280418,-0.137776734420507,-0.0902220384816112,-2.49668796127878,-0.381801784504305,-0.765269939764019
180,180,0.0266462820023545,0.117793623581676,0.950142941193324,0.0191229086491501,-0.126238503718403,-0.0964939880276286,-3.95386510792094,0.00939248670641811,1.09104035854302
181,181,0.0251518194591595,0.116983827176763,0.94927578994463,0.0222888513922374,-0.10580822147058,-0.106148235742937,-3.03709725511101,0.0143045077517031,0.906029139835254
182,182,0.0227965521310034,0.11636929953208,0.94838411414218,0.00917918850629873,-0.0660926896493868,-0.117655605458557,-0.976104174609367,0.879676345100224,-0.127246356375612
183,183,0.0199751355222903,0.116045812104462,0.947619689991946,-0.0228235493474303,-0.00316514323387422,-0.125835302991171,-0.559128609340808,0.64376855950258,-0.782684662522259
184,184,0.017087313204904,0.116116870171311,0.947110167338779,-0.0552280783966251,0.0502936832188686,-0.12800979156764,-0.916228995509918,0.380509887162063,-1.85344237504647
185,185,0.014540145773192,0.116693473664335,0.946959785897615,-0.0885111751643179,0.0772807088854614,-0.116346654946536,-2.09937924909223,1.01231309225941,-1.90728712505759
186,186,0.0123952870288438,0.118205723727824,0.947210622820489,-0.130318454522503,0.0962593847336141,-0.0869725031549907,-2.99543560344776,1.27356976051013,-0.475341829620663
187,187,0.0103810750919406,0.120592822997252,0.947779957847876,-0.165736758218703,0.11997391257752,-0.0314409515130697,-1.20378527466731,2.85239595494662,2.23505282114475
188,188,0.00841423516827115,0.123225578280835,0.948567754510793,-0.213069117208318,0.159211006871557,0.0372314416065147,5.79044862247681,5.33214566263632,5.14564917002117
189,189,0.00641552429319429,0.125467142565444,0.949465723597896,-0.233082844015875,0.182217412463814,0.0889076098029657,4.8432964338461,6.35861694816582,7.25756900455643
190,190,0.00430943841872546,0.126675687439639,0.950356523832406,-0.215377204907239,0.174243672859328,0.120360004345595,0.320595159745522,0.710112323451792,3.82433142589315
191,191,0.00174410358966289,0.126559039034916,0.951308359300631,-0.214276421568871,0.127894715749235,0.132844830496132,1.63639314434525,-1.71910953255082,1.55390942175643
192,192,-0.00122180631707679,0.125536697087312,0.952384363704355,-0.215140051273937,0.0471490994298283,0.134098834484046,1.89487251260321,-2.07557881675459,-0.0138392522491161
193,193,-0.00404488006019294,0.12403540466692,0.95345406786028,-0.208281923555076,-0.0334087531377564,0.13109400294189,3.14666432139407,-2.4821505279605,-1.5764764364189
194,194,-0.00618116819860747,0.122485337078348,0.954386869275593,-0.199429027266656,-0.106469852868537,0.122046503860604,5.9534100586408,-0.211826668453306,-1.05406566213178
195,195,-0.00708676886058966,0.121318509848495,0.955053366991841,-0.174716034063139,-0.162796945711255,0.105345912207651,4.20232863517064,1.67170787422786,-1.35862367563308
196,196,-0.00644195315400992,0.12042375221118,0.955473078240333,-0.125836556744731,-0.178951590743103,0.084142783399909,0.985400369307326,2.11629273432287,-1.92979613139699
197,197,-0.00460964155474355,0.119516844686149,0.955732517069274,-0.0582017129941729,-0.167947083070472,0.0602997011277871,-0.633833126879442,1.17650966680247,-1.62041960151318
198,198,-0.00207172997867597,0.118769542687804,0.955806182582462,0.00872541920372398,-0.13450056011556,0.037427765363937,-0.94502757935037,-0.111406297907808,-1.42229035042702
199,199,0.000689926579902292,0.118351998306164,0.955667978018157,0.0608557417005284,-0.0873677337796118,0.0172680384962388,-0.0335644968614104,-0.534935387557612,-1.12538922219862
200,200,0.00319517368963038,0.118433174260664,0.955289127192036,0.0942183980245409,-0.0415849300318323,0.00110171859613277,0.466978597850568,0.0243272614875084,-0.922128924389361
201,201,0.00550829287650517,0.119137395979976,0.954601674132483,0.114331960702106,0.00164253404704365,-0.0128779098692159,0.0282284346033656,1.14231502810033,-1.34345866563776
202,202,0.00794254833813664,0.120351933940755,0.953636321977756,0.12664759355186,0.051505775005763,-0.0271451556460321,-0.513467406429883,1.6883403369148,-1.41235768347875
203,203,0.010394756317434,0.121889328976584,0.95250790911665,0.13296986479294,0.103055943716555,-0.042492940160565,-0.770293796552444,1.79820058657991,-1.5484855798202
204,204,0.0127639096892085,0.123561436476581,0.951328890142823,0.13499977681259,0.145062138465051,-0.0583833427230322,-0.49210985521056,1.77965532819282,-1.77055998439176
205,205,0.0149510103445813,0.125178851048371,0.950210572899959,0.138843865497653,0.173770538990502,-0.0735768564840431,-0.0814335660269491,1.50157875615861,-1.68372691246138
206,206,0.0170590189139046,0.1268906147542,0.949106523989144,0.146448850222738,0.193568161408568,-0.0842049887241808,0.0833318879018367,1.31945467712541,-1.93160818645238
207,207,0.0191506732106917,0.128816074674986,0.947966359493155,0.156208373678999,0.206413314811623,-0.088527144257443,-0.106051926760429,0.590658697509364,-1.92851517174767
208,208,0.0210704079655775,0.130724598940127,0.946885898211211,0.163651324417808,0.207461486836275,-0.0883437729284619,-1.04041035789228,0.459309895428781,-0.809069912146859
209,209,0.0226654349387123,0.132393194288933,0.945944893974171,0.165372758554701,0.189476548598499,-0.0910376945300382,-0.623768742416744,0.228822852882953,-1.59292010809011
210,210,0.0237838641655488,0.133605532208414,0.945206689564132,0.169026633122352,0.157772194125379,-0.101595358197017,-2.2863531313616,0.910781881856544,0.711042821340882
211,211,0.0244960993170168,0.134289796700265,0.944644990525686,0.168349632142851,0.103197699489172,-0.121865419410068,-2.69024795570047,1.30350366977359,-0.0830553371906292
212,212,0.0248948068144075,0.134598724339844,0.944219044041125,0.156214754648656,0.0477970469408384,-0.153386523123737,-2.89422238033816,0.188520370650274,-1.40641209325059
213,213,0.0248675266316135,0.134650613746196,0.943953332122584,0.134309822482052,-0.0115701958991063,-0.185376755910956,-2.47675848521498,-0.283624313927155,-2.36129434791428
214,214,0.0243127574584042,0.134558189501488,0.943861848994072,0.108759346476671,-0.0657935053808694,-0.20355249699588,-2.12383123942628,-1.35910601479277,-3.00265952173933
215,215,0.0231395403355216,0.13443011001555,0.94394765077142,0.0858569744791037,-0.0910197989379058,-0.189798785915081,-1.87324047689532,-2.83739749801589,-2.86348416096594
216,216,0.0209825299088235,0.134133298922887,0.944162346158238,0.0308203212681353,-0.0893491176501196,-0.126851495618147,1.41545495268079,-5.15206803793515,0.906804133256427
217,217,0.0179074613897942,0.133586876395927,0.944492003622511,-0.0368604367157739,-0.0999066424146855,-0.0330582649368299,4.19716454880384,-6.09031312546322,5.20227980390117
218,218,0.0144770418384309,0.132980792235903,0.94498181304571,-0.0715501952665665,-0.117861445165459,0.070154304091687,0.0373597572889943,-3.45304248582605,6.6295888211836
219,219,0.011257377224789,0.132509815798638,0.945673011977363,-0.0962511636331048,-0.0894020224802508,0.157289532814285,-0.1381606471943,-3.31062195653203,9.35547164499632
220,220,0.00881884781722242,0.132371351932932,0.946602826288799,-0.112678059546767,-0.0458582439877258,0.207952815249911,1.42543719735928,-2.50947347077524,8.47280174786713
221,221,0.0071788906737498,0.132528577203646,0.947917530510886,-0.116660304710722,-0.0116991508227303,0.221929403341961,0.189074351268816,0.362815679236069,1.586982774449
222,222,0.00596335801497447,0.132855881630994,0.949578855111119,-0.121308499105192,0.0468695756729413,0.214109239973404,2.58359697390511,0.441933240460061,-1.75646714779067
223,223,0.00515762656174276,0.133415579618616,0.951346348410456,-0.120854018612225,0.111178865530763,0.193653875759139,1.72064428220007,1.46738507508263,-2.17064593308636
224,224,0.00474765008788625,0.134267298030115,0.952981246756506,-0.111549726064748,0.163747410552224,0.167848002771014,0.825164809562334,1.86614749271209,-2.29568493540937
225,225,0.00472064247361905,0.135469035919026,0.954246460453352,-0.0968099018267485,0.187635022120223,0.143907678475986,0.595057514490026,2.19898322594027,-2.68513479145001
226,226,0.00524062575728978,0.137365805636771,0.955127844138565,-0.077700052349184,0.189218349483389,0.119459835359659,-0.133410828348459,2.03170097999358,-2.95061265425861
227,227,0.00631942300531615,0.139915859616708,0.955781254181779,-0.053129370490259,0.18885933006074,0.0885518231183307,-0.465997925169921,0.63610358552161,-2.79517396482099
228,228,0.00771539272221786,0.142596794844872,0.956226752678485,-0.0249416579651185,0.190322383003303,0.0569978113037116,-0.326057940261502,-0.968398851386852,-2.3960375879533
229,229,0.00918526657516621,0.144887015757498,0.956484829317071,0.00184310317696323,0.180040656297853,0.029027960020768,0.0685664617883448,-1.48112347009207,-1.49679781450209
230,230,0.0104844935911171,0.146265798100942,0.956576274078368,0.0194997559845351,0.166388466370836,0.00644715160633038,0.37070274995152,-1.99544604808905,-0.621931460608229
231,231,0.0116297343474984,0.146591520720905,0.956514467559726,0.0251411298425383,0.149432315175487,-0.00699279100772301,1.15547040912724,-2.06161028469785,-0.210224329842569
232,232,0.0127805908016483,0.146211906403384,0.956291123934585,0.0278740334066826,0.111897500950315,-0.0141941854921578,1.48626089096311,-1.72713902120586,-0.562457535924587
233,233,0.0139066564942058,0.145340899823283,0.955893917051222,0.0300706576561661,0.057917437374165,-0.0190873600005855,1.8272806840576,-1.25106942926522,-0.86058435389736
234,234,0.0149782079919926,0.14419221092552,0.955308570541406,0.0326847305487136,-0.000280237440437574,-0.0257932355252121,1.71538305430563,-1.03651883383336,-1.25766517018883
235,235,0.0159662483944838,0.142978929047109,0.954518899899188,0.0388605243065437,-0.0453906337279406,-0.0388120924297895,1.17691923043766,-1.51568792401716,-1.49560033121272
236,236,0.0168180610848683,0.14156624563155,0.953463323639699,0.0450862445834244,-0.0731774966684257,-0.0582517238219976,0.465812706538953,-1.03067245866014,-1.62635542540546
237,237,0.017550275593729,0.139812526324545,0.95216091842553,0.0530336946012005,-0.0960238952602101,-0.0829412694557552,-0.0224864053313002,-0.908809234720729,-1.87263037659765
238,238,0.0182390169830047,0.137919125443465,0.950713714131045,0.0611050008285242,-0.113026760479326,-0.109110439080412,-0.30414853850029,-0.856695024773891,-1.80923412988789
239,239,0.0189613910981433,0.136086324204796,0.949221410273816,0.0685403650401751,-0.124771765080685,-0.132525049809264,-0.450114492990188,-0.784601158691569,-2.09820437665832
240,240,0.0197953936539369,0.134513777921364,0.947782460368509,0.0702462803739855,-0.133600127723145,-0.149393000664937,-0.59398383887581,-0.346779770911416,-2.20024393307434
241,241,0.0209126583727374,0.133222680471946,0.946259773800557,0.0617774925216766,-0.141607401443839,-0.158125571411635,-0.531589290321554,-0.649711423244719,-0.693533780542115
242,242,0.0222595889879112,0.132077838021475,0.944604771439834,0.0377493163058591,-0.149906512586098,-0.157873141573587,-0.479136482413499,-0.984474997137664,-2.48419041902102
243,243,0.023578027136879,0.13104537477408,0.943043168352104,0.0202614876439059,-0.153240061535371,-0.161112625213013,-0.959816362854925,-0.69099205950149,-0.621040033967546
244,244,0.024610616131808,0.130092252600081,0.941791713706615,0.0167191537942023,-0.150531727757558,-0.153675134792574,-2.44591051843918,-0.576777191400268,-0.0591016259075314
245,245,0.0250995636574499,0.129185893718114,0.941059101843623,0.0206012461454428,-0.128218865465042,-0.139435108721202,-4.07188135882557,-0.633192540426283,1.34468495918329
246,246,0.0248825630170922,0.128262070550264,0.941004242209235,0.0173490940981813,-0.104232022346053,-0.111737652335833,-2.4629714936384,-0.609713712329428,1.38713694197011
247,247,0.0241204038997127,0.127338885814544,0.941511940429976,-0.00322601253953654,-0.0671000975096413,-0.0739336987939556,-1.30040755421714,-0.88616622758076,2.83306269121822
248,248,0.0230435955258119,0.126512937295585,0.942357790581808,-0.0263057207266025,-0.0200470523127261,-0.0309970832142272,-2.0772048986703,-2.36706416039792,5.14807814392156
249,249,0.021891854360346,0.12588902131063,0.943289029701521,-0.0349136173688278,0.00570085430979532,0.0109377325404791,-0.799796580039287,-0.801434758667967,4.11285254942338
250,250,0.0209162103298368,0.125579496582987,0.944026644510368,-0.0337251239649919,-0.00752230748426073,0.0497083050388801,0.609724446608365,4.5726483751081,1.88429194416107
251,251,0.0202936542988738,0.125950037873566,0.94442778284663,-0.0359803231423579,-0.0440108354189288,0.0794841365342412,-2.86120259437888,4.56138237888039,-1.65461576733609
252,252,0.0198604651170883,0.126937981934109,0.944662769311724,-0.0467315629621615,-0.0659418662422231,0.111598810035466,-2.08456019058602,3.48987039864934,-0.996284315057902
253,253,0.0193665460102819,0.128008991198106,0.944906028403807,-0.100328660768392,-0.0555596575972121,0.137502351582188,4.87132910197046,2.47807908592545,1.56016507729357
254,254,0.0185650863443323,0.128623301576309,0.945320267018549,-0.142834235847876,-0.0711972236230591,0.151419482371113,1.7057605468873,2.43103496921881,1.73131636378837
255,255,0.0172134219149636,0.128238215194407,0.946054450158364,-0.17906073786416,-0.114208990674328,0.152614438311697,1.76227586417788,0.527655783155731,2.61292633317511
256,256,0.0148470745506437,0.126431197410914,0.947254905502492,-0.184155368394856,-0.15322986059293,0.148666681068629,1.28381870728462,-1.24709830993865,0.540082867538048
257,257,0.0116357589616763,0.123551352914826,0.948804081190751,-0.166615553548334,-0.196120696686608,0.141145648047665,-0.227152907370786,-1.8696253260833,-2.2219271935311
258,258,0.00829147668298566,0.120216485143181,0.95044967289209,-0.152999942253739,-0.235249539720272,0.130024842894801,3.17835329096141,-0.696519639298403,-1.40546027390076
259,259,0.00552813831848835,0.117053545823867,0.951941117092772,-0.135428719332558,-0.259756304028694,0.11530966103586,5.28979511448386,1.17091745550259,-0.0930843272377603
260,260,0.00406125294106088,0.114696758648573,0.953029972941508,-0.106220051523807,-0.26489029233507,0.0998954429641933,3.69476164884633,1.49406114590816,-0.401260238057279
261,261,0.00417464280021442,0.113142300188832,0.953695348231078,-0.0628059166989989,-0.249902566497398,0.0861020063610941,1.33286130155287,1.74459236027468,-0.666724795254988
262,262,0.00539451676966514,0.111973526524593,0.954101837203402,-0.0144770855031862,-0.211059112988903,0.0739904568388987,0.809153655590657,1.38140635870251,-0.838915696138521
263,263,0.00729826388813677,0.111206321753641,0.954282055712695,0.0278187848622091,-0.151069286501278,0.0638617606897239,0.809685546867128,0.879260461831832,-0.523728661476798
264,264,0.00946228799862461,0.110855823942534,0.95426845863145,0.0614442887493296,-0.0771802391193178,0.0538614219167038,-0.137614378950522,0.515641867417561,-0.334936959727088
265,265,0.0114636498154635,0.110936963327872,0.954092079520866,0.0880228401403173,-0.0150567129594921,0.0424449624504738,-1.02087832102344,0.306983534532924,-1.20927175378187
266,266,0.0133384450660589,0.111623362339506,0.95374336279938,0.106886998513208,0.0288582550959654,0.0281884008816138,-0.537539837800971,1.27078284874522,-2.17128433748989
267,267,0.0153639443162221,0.112901983165528,0.953208485768555,0.114029948897508,0.065527385766574,0.00947316526930033,0.395311820065644,2.11090747248032,-1.981909416619
268,268,0.0174804320354941,0.114507984552839,0.952510285479913,0.110821152519683,0.0874961409181734,-0.0124211931687227,0.94349163503966,2.53032415733942,-1.78310651633338
269,269,0.0196280577417438,0.116178230011425,0.951670912110204,0.100534852304231,0.101826716682581,-0.0344759370378753,1.27149185416328,2.20428016866988,-1.5667513574684
270,270,0.0217467242009485,0.117651997574947,0.950712013666093,0.0943208285156447,0.113431945459566,-0.0534921044472557,0.8991639313059,1.25801788625805,-1.43621501397166
271,271,0.0238619268625002,0.118964091427852,0.94952651584121,0.100061090396258,0.116428599277253,-0.0691712414764984,0.104978200483329,0.848743667057588,-2.04475777847924
272,272,0.026007712530941,0.120286921710964,0.948114645212191,0.110489318983443,0.111193692295578,-0.0835358478647737,-0.317213653526341,0.23641724696466,-2.10163262298015
273,273,0.0281394573971037,0.12157050056931,0.946653898732722,0.122945788316109,0.106348012796286,-0.0937069870719449,-0.438250251876482,-0.29090696739307,-1.73139986329715
274,274,0.0302160713468333,0.12276802217066,0.945313956311582,0.136300639859187,0.108520496864984,-0.0980750580002556,-0.538082830131787,-0.824894620389805,-0.988763875419657
275,275,0.0321990985026241,0.123834886285457,0.944257135593806,0.146440406051284,0.117169440129629,-0.0955926655181843,-1.11864720069317,-0.987828170624116,-0.0109204642660824
276,276,0.0341810950753775,0.124760600563305,0.943498361862339,0.14733224017626,0.124770200098657,-0.0836689031690701,-1.87015451256357,-0.101012127639113,0.00406815902948096
277,277,0.0361876027476365,0.125580301624529,0.942938688394717,0.143968898650508,0.119495285959416,-0.0699227355173774,-1.36900365913102,0.584066811354066,-0.817656702306037
278,278,0.038082286708432,0.126315372121386,0.942558238093138,0.142808490755369,0.1074031455969,-0.0581329276083262,-2.72295041160175,2.08133524831796,0.792110532461379
279,279,0.0397304475559771,0.126983775542489,0.942326876884583,0.142924084561548,0.0875649596368317,-0.0471971125879567,-3.33424368097335,1.31240946289707,1.80814352879255
280,280,0.0409983694864012,0.127601249906479,0.942205660140385,0.147946987058899,0.0728162516382469,-0.0393574353038546,-3.11545829422485,0.381470497848287,2.25621143097376
281,281,0.0419742061115605,0.128223206846451,0.942165968505093,0.151861836492161,0.0451942546799764,-0.0436197183936142,-1.80403819755109,0.164107090674048,1.55694648509128
282,282,0.0427403445100789,0.128835712442174,0.942237991665969,0.157391400597374,0.00621412316449791,-0.0575995208899118,-1.28311920811623,0.198739610345351,0.2264397100471
283,283,0.0431590855337695,0.129350236495206,0.942459878252689,0.161746209354682,-0.0218333480289537,-0.0732836418014799,-1.92462890692814,-0.254845316608798,-1.29937004488448
284,284,0.0431007813938271,0.129678278297526,0.942857435526661,0.157892439913697,-0.0272263468521338,-0.0845796732457149,-3.59273223956304,-1.13472576416188,-2.15218021805966
285,285,0.0424446359259262,0.129730371756864,0.943443135964012,0.152592591697922,-0.0152662870664275,-0.066582583722251,-1.35933437816138,-1.970568663547,-0.63417424034803
286,286,0.0408771826410195,0.1291876305413,0.944219900400629,0.0996486137867681,-0.027042760984388,-0.0127932078032281,5.47975572480694,-2.50827488821384,6.02766549257671
287,287,0.0384812676401686,0.128105557732312,0.945171448183146,0.0570391318131699,-0.0117611492993603,0.0606658290161398,3.52552211338079,-4.28947927010326,7.17970227335819
288,288,0.0357383174152746,0.126959046336991,0.946269746366035,0.0269932476924637,-0.0142973681770499,0.139318882042273,0.635169382751439,-1.94642090886206,6.7434159501422
289,289,0.0331348797100465,0.126227262938949,0.947479462187993,-0.00246096027377508,-0.0313160349739797,0.203465946509107,0.230559238931063,-1.37952005041677,3.89449991776511
290,290,0.0311630962127508,0.12639257184564,0.948757666131621,-0.0249882722174935,-0.0250579405988677,0.235370433248674,0.73175156659538,-1.65905430603636,0.292105609423733
291,291,0.0297829168186539,0.127797582953981,0.950239300045899,-0.0340617096243824,0.0160038537630599,0.230345838365836,0.864054579585131,-0.427620515687637,-2.41277911719663
292,292,0.0286736345338123,0.130126808754427,0.951938735952317,-0.0322312391953042,0.0722112699787815,0.203380756236414,0.870637251339658,0.282820173488501,-3.48829482333302
293,293,0.0279087289049771,0.132874001654093,0.953630050339538,-0.0263401575148165,0.123617345836863,0.162528189620001,0.952385619637368,0.893687333632101,-3.10235608734228
294,294,0.0275618957145293,0.135529373607735,0.955089777056826,-0.0128118558011705,0.168724458892017,0.116406227273786,0.779901090074152,0.124470139741038,-3.16719796225291
295,295,0.027707429868039,0.13758107332271,0.956096995896707,0.00507365167163837,0.191863718285243,0.0763324350005232,0.809103946055676,-0.143392729903598,-3.24707015080652
296,296,0.0285493435445554,0.139108461753717,0.956625138976239,0.0231850046147694,0.1905987999605,0.0443685534949977,0.899179836670493,-0.2599414219222,-2.78878134223346
297,297,0.030038795230052,0.140448464362891,0.956821992747976,0.045133600888599,0.161758571418129,0.0154418384880616,1.17940175679856,-0.469163954310163,-2.01246186821137
298,298,0.0318696618128332,0.141476511489902,0.95673030732163,0.0713293076064136,0.125447321848279,-0.0104230039282755,0.738915012887615,-0.491604619469325,-1.99080632048461
299,299,0.0337348437875541,0.142070159557602,0.956392842944992,0.0958910083729809,0.096832865075367,-0.0338984628155566,-0.0260668625265043,-1.05195308754707,-2.26003910340775
300,300,0.0353271272263038,0.142108598694904,0.955852105967911,0.102177735826914,0.0713413406605969,-0.054407352395701,0.335166230169421,-1.40133411759,-1.58794783588063
301,301,0.0366535905316561,0.141385499349228,0.955044021344756,0.0965736046729617,0.0413734013899839,-0.0703909388640058,0.761444234717418,-1.43871247645596,-1.15628701259667
302,302,0.0379142722909772,0.139984396487335,0.953949057436857,0.0889023026525328,0.00309936728651449,-0.0824864025919174,0.583168719525811,-1.20854517196608,-1.00755535381142
303,303,0.0390925425934605,0.138218689227697,0.952675654434018,0.0796189663576305,-0.0403022274082643,-0.0924612738152774,-0.0775052006363398,-0.79894832026666,-1.04951228292696
304,304,0.0401723677235122,0.136399726302555,0.951330759492879,0.0686698564806243,-0.0777428667426492,-0.101799025442948,-0.562070694694961,-0.799312080578997,-1.34492118070028
305,305,0.0411381167681812,0.134836514891521,0.950019784955402,0.0528996530753768,-0.102726206329517,-0.111439901809522,0.150404772645658,-0.683143867403236,-1.07880490205828
306,306,0.0419409214642649,0.133483001052311,0.948642021118589,0.0306260037551196,-0.107871535242214,-0.118238927504002,0.612726785826745,-0.228937599868259,-0.781045954449635
307,307,0.0425874140788444,0.132129717536719,0.947143071808716,0.0163948428712346,-0.108083511810344,-0.124802082279863,-0.170911954983284,0.0449075526094252,-1.05609463158875
308,308,0.0431479254935088,0.13083891967636,0.945692296947795,0.0118102162032502,-0.106274631262664,-0.130694394224577,-0.856622510182725,0.431367650104788,-1.10800602106092
309,309,0.0436954919239451,0.129673235195257,0.944452540488885,0.0133178530335517,-0.10705159709556,-0.132353903071537,-0.669121187726608,0.410555684501783,-0.486614296255217
310,310,0.0443039119223989,0.128696968174059,0.943582350330956,0.0186820926051811,-0.109363721095517,-0.12663069916176,-1.38088692027673,-0.327995018518201,-0.752003697249684
311,311,0.0451269661798412,0.127920917301384,0.943213957382543,0.0297906643648522,-0.101168267754378,-0.117717442362993,-1.93540899543648,-1.20402048368228,-0.186945344054808
312,312,0.0461078644299047,0.127299660459866,0.943270317533812,0.0474255864826161,-0.076354132636847,-0.104074929602519,-1.49965416451929,-1.36888232457896,0.811692132812592
313,313,0.0470057080498957,0.126819530178338,0.943580096009822,0.0710639318002814,-0.0481014188649763,-0.0863348091013581,-2.01915493104295,-0.799670223814275,1.06303277804804
314,314,0.0475852142201048,0.126472306548675,0.943945927131146,0.0866385790943407,-0.0240625699438913,-0.0636209503265716,-0.996563234269962,-0.421456370517555,0.727363249917096
315,315,0.0476192110490629,0.126254476241076,0.944143412677012,0.0820716364375628,0.00408402137051226,-0.0405920742682176,-2.30332736524955,-0.522977495936175,1.0806978683367
316,316,0.0470618771587865,0.126213560626388,0.943990794479223,0.0427702680348086,0.0284692620439337,-0.017630401233135,-3.49853173183276,0.0360821302598897,-0.0388584608784428
317,317,0.0460583327578714,0.126365444802689,0.943623128786113,-0.0360946197875599,0.038096839809887,0.00255675951392093,-4.04745649384675,0.594028576207709,-1.75915184307909
318,318,0.0446807827641132,0.126654962116469,0.943270899336303,-0.132681515447693,0.0137103695979718,0.0210110902167973,-4.84250348077206,2.65842295714562,-2.8173853377854
319,319,0.0430102220549739,0.127018704705252,0.943159815320257,-0.243578447501983,0.00541650212097633,0.0515079783554506,2.13440987321133,3.9360034311789,2.22481078479017
320,320,0.0411358633738697,0.127386573136396,0.943510464186475,-0.328610336547711,-0.0209603271911697,0.0735543182443419,4.25357337734832,5.97504370153308,5.38610561507748
321,321,0.0388336090387024,0.12793369556761,0.944438592654157,-0.338955948833023,-0.0645498249535805,0.0954729446383494,2.49943408799182,4.76681066082442,6.40619032816656
322,322,0.0360536753837421,0.12869768369885,0.94578611931019,-0.309865696553949,-0.0611326678770411,0.121658132424767,-1.39513101240734,-0.466797623424347,4.31162010282363
323,323,0.0331517737983957,0.129400056527262,0.947356001223762,-0.277727340088979,-0.0434348137560438,0.147448904201859,-0.470467947659484,-2.07572886441968,0.686405348312561
324,324,0.0304866232721392,0.129765777209871,0.94894504616114,-0.249493158027158,-0.0364030312460161,0.16839118896733,2.09553605969444,-1.39938504609494,-0.395381089350055
325,325,0.0284210828394274,0.129523563754795,0.950345268986325,-0.229152826746097,-0.0420195206827569,0.178361297528028,3.69897350221071,0.222307951052582,-1.06861705043735
326,326,0.0268893762610744,0.128305611612822,0.951620664517738,-0.205042686488253,-0.0522398112370302,0.1734394736744,4.16026100496737,0.795288718632975,-0.455333374491679
327,327,0.0256590563074224,0.126292675754639,0.952899486514593,-0.157432450391817,-0.0702866522959183,0.156695185300632,2.79213082573571,0.348097249138796,-1.12284354310394
328,328,0.0248438855399936,0.124041271686102,0.954070587071463,-0.0958384813280792,-0.0914482144487836,0.132469474304033,1.78858843114923,0.638510749732237,-1.5650126037032
329,329,0.0245552465522104,0.122110232859791,0.955022564831403,-0.0345909987283787,-0.102233247162178,0.105546018795831,1.10049530153571,0.945786071971854,-1.84256279543005
330,330,0.0249021648475736,0.121058393920642,0.955643160016577,0.0121367936893461,-0.101571589179534,0.0822385183348885,0.666198742825048,0.901013266671647,-1.60735239501054
331,331,0.0261466890202231,0.121025553056766,0.95591317833621,0.0411187964906904,-0.090722853423243,0.0627792961766589,0.973370679691028,0.816971459414468,-1.5471209515735
332,332,0.0282116775970844,0.121639201734488,0.955911525379866,0.0561147558357108,-0.0640415982622289,0.0456931888551666,1.81242000823693,0.9462736477804,-1.68095952896805
333,333,0.0306959712030377,0.122687502467569,0.955673028202753,0.0634156261601633,-0.0275673587112279,0.030793544215364,2.0892640524147,1.07901323309397,-1.65645568048227
334,334,0.0331995613384601,0.123960381204647,0.955230905105662,0.0728532803562266,0.0123702887023312,0.016561426308937,1.13210822022526,1.10818139036436,-1.78292714121621
335,335,0.0353244544729212,0.125251612007585,0.954615507650073,0.0885449731159461,0.051492215356833,0.00211496756380293,0.0404608649399183,1.18760989458082,-1.98397106999294
336,336,0.0369615228462431,0.126593382477388,0.953770157698371,0.101309619086429,0.0891370211859119,-0.0148217187794116,-0.493933944952551,1.14106995208897,-1.93262147837773
337,337,0.0383712255365143,0.128123237425226,0.952682106063598,0.104593858206736,0.121095771961838,-0.0353166366011173,-0.538042770843871,1.38598439666042,-1.80845416614279
338,338,0.0397115225799003,0.129797262078772,0.951445326292366,0.0994243808257796,0.143994827296398,-0.0582958501487804,-0.234516790950578,1.51373098272184,-1.5815602809935
339,339,0.0411399081879578,0.131572450456546,0.950154373174518,0.0933782508323925,0.157963961397288,-0.0811551889922271,-0.155271139563193,1.1883905031004,-1.64435749989935
340,340,0.0428132504902513,0.133405559362046,0.948905501178851,0.0909789725191475,0.165915688669917,-0.101157775510059,-0.0503481985859766,0.892518580047669,-1.65595856878626
341,341,0.0449169059857494,0.135410983224553,0.947590257171481,0.0957480045268543,0.176571777360387,-0.11611843288841,-0.0901683075783357,0.633971544379487,-2.26801849636832
342,342,0.0473368584021071,0.13761585145521,0.946170912975253,0.105783987573369,0.192622759965861,-0.124339129374806,-0.185108398749527,0.257364432691653,-1.83674088696156
343,343,0.0497862205644135,0.139846996935312,0.944840977687508,0.117706698918064,0.211779165646159,-0.123755363539072,-0.792875076027395,0.421603391769484,-1.0021196423066
344,344,0.0519847181218022,0.141935118258171,0.943776350917552,0.12468996648383,0.219148418039556,-0.115461598229102,-1.86929771350532,0.299732327436238,-1.24871261408843
345,345,0.0536557111548415,0.143713961230582,0.943135882591379,0.131332176569283,0.200480314210698,-0.116183690686382,-1.98735007911016,1.18287908982619,1.52382360459713
346,346,0.0549122706984966,0.145151882221172,0.943026248735104,0.138790061832625,0.164501049083291,-0.117073371521052,-2.60613384382731,2.50364810675522,1.50829269449571
347,347,0.0559316632604683,0.146361899523424,0.943348103239447,0.143941038340572,0.135681718983066,-0.11690008033919,-2.57408279112864,1.2960081460012,1.57567289622912
348,348,0.0565404133031836,0.147392439744791,0.943931677338007,0.152068161347535,0.102664088503723,-0.111924964576095,-2.51121598501201,1.75811986424139,0.442540865082314
349,349,0.0565758947655787,0.148289182522446,0.944591313087756,0.142423837976187,0.0678788712080276,-0.103139112567317,-2.05083186391292,1.10231267357297,-0.127888476033527
350,350,0.0558870442180157,0.149096677510571,0.945125110753615,0.120903270327221,0.0421031799180733,-0.085505472180339,-2.31393442123861,0.0190817426828655,-1.34784870004916
351,351,0.0540771307526746,0.149781250706458,0.945391992277498,0.0921513488202059,0.0404808204930046,-0.0416616909464117,-5.03918889038155,-2.08653250068294,-3.12476094525393
352,352,0.0512513672866388,0.150307398666329,0.945513256959245,0.0303381643839831,0.0397010450431832,0.022902706729675,0.320533074567156,-4.82172746507099,0.131750372328861
353,353,0.0480213742972005,0.150721465681923,0.945669243500764,-0.0552532122279249,0.0209248626596856,0.0880731096583038,6.40655559744799,-6.93732054620428,6.43411416516615
354,354,0.0450031999029949,0.151072827865545,0.946035654675401,-0.0997574583102075,-0.00133822254490006,0.143022151272268,0.850488462126689,-5.3373575393469,7.55952359755803
355,355,0.0428178364198144,0.151411629285238,0.94678197286727,-0.115181649725341,0.0153020611780641,0.176202478007986,-0.952302705158663,-6.25604604504518,7.14053116883211
356,356,0.0415610031007096,0.151578142787355,0.948084866158164,-0.137140911836753,0.042290838701614,0.186088251675155,1.48792543904535,-4.80915102657508,4.00901897826924
357,357,0.040827044568829,0.151545576952198,0.949818431611182,-0.143536600140484,0.0666286625466477,0.186261016068171,0.203345608737172,-1.10799004445933,0.190770830698612
358,358,0.0404871720605078,0.151560874737334,0.951694436740617,-0.138132001939584,0.100885793579225,0.182678476177078,-0.900419904095371,-0.0217160511816896,-2.6049295110916
359,359,0.0404131852523925,0.151867429544912,0.953425180904372,-0.135187620543341,0.132899591728319,0.174493170762128,0.764987724405425,0.492175926180785,-2.995896554904
360,360,0.0404783383848198,0.152705733324022,0.954724159969192,-0.128760671751474,0.14622042508403,0.159754874539428,1.77042065882785,1.68686194166563,-2.69226833449964
361,361,0.0407822172472989,0.154495897528719,0.955550918582088,-0.110552739372749,0.141426162920436,0.134752904595864,1.83189429033869,2.68186144628429,-2.37640180543545
362,362,0.0414136297040197,0.157074802585338,0.956092237890086,-0.0737387496265108,0.13865685090384,0.0971030361406443,1.00177431274492,2.45064826605057,-3.09710559252518
363,363,0.0422292939559564,0.159806485042632,0.956403812518305,-0.0264676637346656,0.148209658528162,0.054165183690653,-0.455268735525134,1.16469005055384,-3.69844996649257
364,364,0.0430844842613976,0.162055093581901,0.956540583184236,0.0151920792794757,0.158906057486046,0.014637371642118,-0.737518368625242,-0.415955432973577,-2.69000341943457
365,365,0.0438330601991507,0.163185450897758,0.956557112541734,0.0382906674499253,0.156408656082462,-0.0144805336504346,0.165214659149887,-1.7114476524982,-1.10671231155583
366,366,0.0444257201805926,0.162911326972103,0.95645909651714,0.0469325244798478,0.135946977446381,-0.0312429314408846,1.53487726885659,-3.04261060938489,-0.480173419598024
367,367,0.0449558363807976,0.161657642518477,0.956214622426257,0.0517802404659013,0.094570766001551,-0.0398522603231507,2.19631224901535,-3.37723632828282,-0.5673227325216
368,368,0.0454907941990412,0.159856688917258,0.955822312067886,0.0578444227647838,0.0353268074217106,-0.0447655829046322,2.11962391613148,-2.53949974116902,-0.989073635269914
369,369,0.046099139074118,0.157939563436028,0.955279109818226,0.0638721393140972,-0.0311063531970338,-0.0498563219988717,1.59044535684787,-1.57705479760467,-1.41612786767965
370,370,0.0468507746071385,0.156335347081724,0.954579456191683,0.0662827549309564,-0.0833111734810276,-0.0589003668870334,1.14540028367646,-1.00714177669574,-1.43702418301548
371,371,0.0477984421833636,0.155069975499233,0.953694230823575,0.063137514489649,-0.111235015350189,-0.0720979350910644,0.80590734028614,-0.667117935636835,-1.45468058882357
372,372,0.0488916339054559,0.153858510156668,0.952637961240379,0.0555472796747531,-0.117831730230359,-0.0876318779919965,0.806348464809573,-0.551373279579098,-1.28944799276297
373,373,0.0500467614946246,0.152660061149435,0.951466045321345,0.0489443916240711,-0.113134050503728,-0.103711131897658,0.461148119846493,-0.477412591293138,-1.38463581162121
374,374,0.0511811778964201,0.151430829153837,0.95022942358174,0.0469227846697241,-0.10418024005835,-0.119262937148082,-0.240179365383574,-0.365555781414056,-1.90677695033731
375,375,0.0522130433927692,0.15012443227988,0.948975405248182,0.0445278189394561,-0.106020166582719,-0.132243419022636,0.0643425898728587,0.0386304605880636,-1.7163709619287
376,376,0.0532636808443949,0.148662873288183,0.947603433078007,0.0337349071133265,-0.11514023453457,-0.138481490514609,-0.637011634781611,0.574689199582851,-1.20290258398346
377,377,0.0543824383089634,0.14706908255496,0.946096300978262,0.0330422331472255,-0.130075599571819,-0.145303463958851,-1.7032688628969,0.308758452077884,-0.877851938860577
378,378,0.0553834664805619,0.145449796379642,0.944618990765519,0.037940131684389,-0.143093420887136,-0.150189509068999,-1.83292273524902,-1.66788460973942,-2.45230601227307
379,379,0.0560851502682266,0.143916179253141,0.943327519968197,0.043702593042795,-0.16013356368818,-0.153053371048251,-2.21830758584303,-1.03357521125608,-0.996700172248864
380,380,0.0563079683894596,0.142584299783016,0.942370423006926,0.0541731667860264,-0.169319799876367,-0.1468518780451,-2.93569776534342,-1.36859882997368,0.991406060578446
381,381,0.055957474760266,0.141443355592062,0.941779641497075,0.0598951032803426,-0.152063892418709,-0.134350164319738,-3.33556780077927,-1.09015868804615,1.27004543973697
382,382,0.0551443582444133,0.140419425797639,0.941477568814064,0.0546455954647437,-0.122614718736204,-0.112820984193781,-1.68533541895455,-0.47145796334831,0.808369632154575
383,383,0.0540018692566745,0.139539817044184,0.941429387133209,0.0314000823453925,-0.0749374507407581,-0.083523631227351,-1.47220488786522,-0.434345274042532,1.98967122026629
384,384,0.0526738977877756,0.138834340077378,0.94157422892141,0.0145713086664511,-0.025092597678652,-0.0499654146868727,-2.01651108462222,-0.67502551255483,2.17190528123824
385,385,0.0513171383420138,0.138334777954714,0.941825450036036,0.00524370643747391,0.00211933586706095,-0.0149875525458921,-2.11910429952518,1.01542392480162,0.970423600587432
386,386,0.0499397976232663,0.138208013029099,0.942118461506521,-0.020515578423301,0.00127462250661133,0.0297759396988487,-2.61387343236607,3.35726354116068,0.280565724981689
387,387,0.048442096985326,0.138440771078889,0.942492857333851,-0.0528229769368587,-0.0203534797027158,0.0770756765028076,-2.808144305126,4.55341814064891,-0.56831947252583
388,388,0.0468293519296526,0.138790418813693,0.943001968413518,-0.110144232429245,-0.0385536035919251,0.128830269673228,4.53553609925305,5.64316825987579,4.37593205484748
389,389,0.0451105043463711,0.139011014797998,0.943693346689106,-0.154730358597664,-0.0319790821080877,0.172995175340327,4.73506014563815,4.17565781118694,5.09245165193217
390,390,0.0432986204228741,0.138855464746293,0.944607335231733,-0.17698471489959,-0.0554555640797403,0.192392434732045,1.97977895483162,3.51770835096923,5.39714860881872
391,391,0.0411464322578076,0.138222353184854,0.945875351411006,-0.183534208575057,-0.0730475932973287,0.198085512106698,-0.146834744023951,0.149452655387844,2.96737090499673
392,392,0.0386536151072046,0.137272065823949,0.947456297449852,-0.180153728498279,-0.0870658480096588,0.196689413743131,-0.456402346098033,-1.41896869166006,-0.447248512435893
393,393,0.0362057803621404,0.136149931340679,0.949128400517049,-0.18389219483607,-0.111266703093725,0.188689955977592,2.16261099822722,-0.776424126191426,-1.90386295190457
394,394,0.0341886320522296,0.135002028774893,0.95067058194481,-0.187939452408954,-0.133166388617564,0.175060786700724,3.96282121752795,0.29117265447077,-2.05079742013695
395,395,0.0329880911853418,0.133975476713038,0.951862865380562,-0.177523631222329,-0.135091874718281,0.157717778768416,3.53310481461224,-0.101072482136278,-2.51040348571118
396,396,0.0327549331624033,0.132879752030816,0.952724346401165,-0.140096201348389,-0.125645643988042,0.134185426119203,1.76804095071161,-0.0933379007382557,-2.37990600633567
397,397,0.033234142970571,0.13162017413953,0.953400661414796,-0.0804277375942293,-0.108453458810294,0.105460222147903,1.05563865062916,0.586379693385893,-2.13805141899641
398,398,0.0342014831378143,0.130488047805378,0.953863799322623,-0.0195166056695396,-0.0820909845225682,0.0735641163069864,0.837286956597558,0.124138381560442,-2.132986026892
399,399,0.0354313789440622,0.129771577222902,0.954085078714992,0.0312270030545979,-0.0576551380232413,0.0403613627371012,0.531726433266164,-0.366148326750906,-2.14784535113206
400,400,0.0366979430674315,0.129754230918658,0.954033831587449,0.0648519333353796,-0.0294849642387454,0.0118363555385634,-0.12162809336182,-0.579629414666829,-2.2542748112277
401,401,0.0380962781873352,0.130630070114458,0.953651378617094,0.0779146759833043,0.0126803155433748,-0.0128363598295999,-0.133687946301375,-0.442302452280725,-2.36682056580392
402,402,0.0397728799432244,0.132204470226976,0.952963340525664,0.0820462479308031,0.0556784205335334,-0.0379212639703708,-0.181174839117813,0.796440086409718,-2.58523452048643
403,403,0.0415800654160242,0.134175727040801,0.952063460333132,0.0813552150949444,0.0952594054361072,-0.0629177028899991,-0.0933688735667385,1.76218473213009,-2.49157256570327
404,404,0.0433706157896288,0.136245575928614,0.951044978235655,0.0775529537330512,0.130323975639831,-0.085565706778708,0.056540102796723,2.03010474921225,-2.08207877158461
405,405,0.0449974393628887,0.138120208638731,0.950000653172228,0.0748041152457111,0.151169782378599,-0.105239630371799,0.00601870463900119,2.19487971618543,-1.49889627432565
406,406,0.0464263772456632,0.139877124710278,0.948866803597309,0.0752743680632269,0.160572630396518,-0.121514797248067,-0.0275198056648866,1.92652892990092,-1.13026985478742
407,407,0.0477518956302772,0.14171367124641,0.947591427824159,0.0760807445095602,0.166921665270194,-0.134361168549551,0.0545510476530579,1.09625080383317,-1.00462371344239
408,408,0.049020979392583,0.14351991670333,0.946282181550166,0.0761781423952009,0.169839463665543,-0.143365003124003,0.221007961276604,0.237443029753744,-0.917879088608323
409,409,0.0502823335198887,0.145186219938599,0.94504336076784,0.0738005785063795,0.169883938099874,-0.146131176324836,0.218788095924202,-0.524323472205244,-0.898318825275342
410,410,0.0515859869101216,0.146602403009928,0.94397643282261,0.0691935019524774,0.165857904634535,-0.141562642216738,-0.581792798470345,-0.302863661782784,0.0247746260418094
411,411,0.0531436982596404,0.147736781787054,0.943056242174325,0.0650241411311976,0.156069589825751,-0.129092764674589,-0.295392170599171,-0.403893267811591,-2.28093827683925
412,412,0.0549195831829771,0.148663560888585,0.94223164391405,0.0685018497738826,0.13792368028148,-0.119143654604242,-0.17892948163316,0.300861932453856,-0.0943866349972096
413,413,0.0565954595480757,0.149430664824706,0.941552598990308,0.0807224300647952,0.103631920326225,-0.102770782100246,-0.875047232072933,0.905022731343531,0.722219068410181
414,414,0.0578561242079778,0.15008649174584,0.941052850972043,0.0938337265992811,0.0736168383640712,-0.0826290863638739,-2.27536668558773,-0.458207534451844,1.95509263536733
415,415,0.0583879644700737,0.150679339053785,0.94075212247666,0.10881216868606,0.0409925774657925,-0.0620480141039323,-2.94472346440941,-0.369061272260409,2.71799524843672
416,416,0.057965642834589,0.151233673853894,0.940610103650013,0.120998694279241,-0.00078145513173481,-0.0445285071114928,-2.70240680677851,0.705905606559869,2.4247153687199
417,417,0.0567919412748437,0.151713532940813,0.940609731826915,0.119173737406686,-0.0215406328020163,-0.030574674872206,-1.0439663525459,-0.028511644184318,2.32683897019872
418,418,0.0551998397189405,0.152076125719296,0.940797254554775,0.102268280418882,-0.0264231657409477,-0.0174706831589785,0.100924789810494,-1.16705715095079,3.00591576710389
419,419,0.0535302271751976,0.152281384055965,0.941211750413354,0.0828479152254244,-0.0194683573365317,-0.000849734525811504,-1.93367674139884,-2.18609919968313,1.24569666910796
420,420,0.0521325415853282,0.152292305439552,0.941882645550433,0.0644486081074058,0.00468930236768963,0.023524818793654,-2.83947603270437,-1.86169100284548,-0.583323611460512
421,421,0.0510410867641917,0.15192123120354,0.942852966562059,0.0409502543501489,0.0234687362893149,0.0696693583284686,-0.0975164345712597,-1.25099167744919,0.795075984022187
422,422,0.0500273289660591,0.1511894423841,0.944098980403502,-0.0163388546800697,0.0221331341713563,0.125240611711704,3.49764436336301,-0.787833407442387,5.71617314498023
423,423,0.0490517813087401,0.150378309253281,0.945541752976142,-0.0641092739683945,0.0186530778973227,0.176754881383287,0.713790688984753,-1.42542859763783,4.29607388298885
424,424,0.0480764842856219,0.14977366015061,0.947097750724989,-0.102202886930598,0.0194085402515883,0.217364689427687,1.164632692785,-2.23749816893963,3.17991611158434
425,425,0.0470658332049089,0.149665250123266,0.948678585404258,-0.129045733037067,0.0275692793389758,0.237385338364036,1.53948853906253,-2.39974071733758,1.54415064421624
426,426,0.0458970585119574,0.150172141122476,0.95038840403652,-0.138283705458547,0.0486074396181602,0.233852778718251,0.231270276671941,-2.23777351605557,-0.453815764584706
427,427,0.0445981425174151,0.151110529767449,0.952277704119993,-0.134246366536993,0.0640648669672992,0.217045831010293,-0.756629327602222,-1.41187406365233,-2.29430571860626
428,428,0.0433615548238376,0.152314183561149,0.954174450186078,-0.128572582556543,0.0738048338854458,0.192086928541135,0.126986443742364,-0.244265293929156,-2.23445647132585
429,429,0.0423803017120185,0.153610892402263,0.955905949707657,-0.120326563215821,0.0783510687688643,0.162968362499634,0.470153272331161,0.562544232982883,-2.14152809236398
430,430,0.0418479540825537,0.154823557833157,0.957299301638374,-0.108998731309696,0.0696442666511415,0.135623394736978,0.635710268758476,1.65788372128473,-1.90512069738004
431,431,0.0418681086286662,0.156154290174764,0.958344469384799,-0.0897182189581224,0.0572010614826534,0.111836002532053,1.07922686467176,1.70930206230099,-1.6586107621616
432,432,0.0423155575028124,0.157716210688696,0.959152575337599,-0.0545212352705366,0.0623597153783922,0.088029220993934,0.422868480042809,0.116480432432164,-2.34613390767993
433,433,0.0430398388480921,0.159197569637566,0.959732722201304,-0.0195695411852065,0.0772369543434995,0.0646449985744248,0.648307464810112,-1.24229353075625,-2.39192840033396
434,434,0.043888716477907,0.160287836026329,0.96009402984635,0.00344658504527836,0.0891938385135275,0.0412960903237485,1.41178331216175,-2.28345674223401,-1.56999633826353
435,435,0.0447082258357206,0.160677448449261,0.960246009491465,0.0193464641578507,0.0917187369524724,0.0173468584953849,1.42813287272381,-2.57662713603917,-1.21951337550056
436,436,0.0455655465378269,0.160214860133096,0.960199569117716,0.0342526939126284,0.082561851724045,-0.00706167044255733,1.53835862799112,-1.96186069139243,-1.46920993791069
437,437,0.0465592569501596,0.159108087628925,0.959952572837788,0.049163990072458,0.0573109047561984,-0.0317184814165783,1.38126841115676,-0.96195297735467,-1.79797531538398
438,438,0.0475818997904717,0.157587035748819,0.959495769233481,0.0604248717896963,0.0203224142776395,-0.0563428600135195,1.12700179051798,-0.277926880253239,-2.19934381982525
439,439,0.0485268097964549,0.155880337266597,0.958818819408363,0.0667476510926041,-0.0185845659646964,-0.0804024451381291,0.970834847186865,-0.0157225453614732,-2.50310778455324
440,440,0.0492883513089338,0.154215010234518,0.957909561059743,0.0683108304289087,-0.0535677641654622,-0.103735007334161,0.997102595185828,-0.0903009575105746,-2.45063382573395
441,441,0.0497919627781282,0.152516684162722,0.95673529390489,0.0632576028248748,-0.0783326322389267,-0.125841535437891,0.902642563528355,0.129429593979468,-2.32578035712941
442,442,0.0501041741604323,0.150632934082966,0.955313645031926,0.051871252382115,-0.0999249442272686,-0.149449636358626,1.06439321551937,0.109736466483189,-2.01887314249178
443,443,0.050332814088984,0.148672535156,0.953704838584113,0.0408039840946176,-0.119656368170841,-0.171585974102774,0.627099754934659,-0.0760919541492449,-2.0957522692462
444,444,0.0505870370391682,0.146744351634606,0.951966570452384,0.0327177155806581,-0.138695789094547,-0.189596508343807,0.086283417520839,-0.113454303900885,-2.0062912711823
445,445,0.0509771605826422,0.144957392095583,0.95015412088237,0.0267115512274366,-0.15763796097124,-0.200733653087509,-0.225278714302787,0.126888863805958,-1.48747356582324
446,446,0.0516183171995974,0.143294996630637,0.94804778940309,0.0219599625136588,-0.171001083547267,-0.205885792245381,-0.247368772100166,0.0536015671128887,-0.744110841707178
447,447,0.0524345346578467,0.141683128984625,0.945623266776271,0.0198938811214711,-0.175952073721128,-0.20570304439679,-0.426093081500633,0.600473261010015,1.53268714158475
448,448,0.0532527967446616,0.140144767570044,0.943222104501258,0.0185755989477801,-0.175550434404477,-0.189759429488816,-2.10035565370069,-0.514061528950344,0.353071905520431
449,449,0.0539033232886803,0.138702777935256,0.941178194029892,0.0251806898154822,-0.180663895957211,-0.171946066566312,-2.60647554863925,-0.115271463758913,0.570527004656144
450,450,0.0542178451285792,0.137380711199543,0.939819489753951,0.0338639106775054,-0.177467204693553,-0.147683729138687,-3.21632461818241,-1.40020041973225,2.43464788726624
451,451,0.0540526004474801,0.136065075120476,0.939286767908505,0.0316554731182661,-0.16037276337001,-0.11304647619277,-2.45334028886561,-1.01634460882188,3.09263458928625
452,452,0.0535156230202994,0.134739850537444,0.939377554951182,0.0198134713315767,-0.144284458418844,-0.0584230666518909,-1.3390646509898,-0.188937155112756,2.37716197654891
453,453,0.0528180401694784,0.133578433864204,0.939889966211747,-0.00463293104537523,-0.101019100629774,0.00299729270343908,-1.59312780220445,-1.09989683927119,3.71369035409055
454,454,0.0521761080356746,0.132756809993957,0.940601404369141,-0.00869316102736774,-0.055289136268671,0.0594160338328969,-2.1904267638398,-1.72644720680184,4.34649640175446
455,455,0.0518128442511822,0.132452972115701,0.941268727452018,0.000214869931761617,-0.031678714875338,0.100008220849665,-1.05349092976579,0.125113914829724,4.09372127566462
456,456,0.0519810238782181,0.132976586839079,0.941818584275466,0.00118103012767123,-0.0225496242286816,0.124095846940545,0.166859533025644,3.05203439241624,2.66905502210141
457,457,0.0525309262789339,0.134215793342023,0.942397181618663,0.0167316953215663,0.00115713995519322,0.140236766557599,-1.41060899529183,2.91216121032128,0.247865960733753
458,458,0.0530892454226942,0.135713991899538,0.943079461501133,0.0226803160358685,0.02420201482868,0.146540916427444,-2.86761702963798,2.25552700399732,-1.61952926373048
459,459,0.0532868953056093,0.137012158221394,0.94393782166034,-0.003459785868999,0.0318751149682667,0.144526381039528,0.153441498938775,2.45969338130808,-0.0488092757321997
460,460,0.05275937568412,0.137649920315801,0.945040014105818,-0.0544453329081159,0.0520954997701428,0.143025321010188,3.51575478871493,1.44005150295409,1.61441809660134
461,461,0.0511546311471138,0.137548293232165,0.946519632283157,-0.0890620931521665,0.0280634315768575,0.140507408145521,1.74596622427967,1.91937756025821,0.969297756898104
462,462,0.0487221802029965,0.137012405004715,0.948323396559379,-0.120906597064039,-0.0362915900381035,0.135317669223534,0.651214355117999,1.82477040979516,0.734401599190168
463,463,0.0460025008726891,0.136155321693628,0.950234189269362,-0.142843056033574,-0.0857065797739053,0.13291318292423,-0.00180252806317708,0.20971015880789,-1.69569948650178
464,464,0.0435361991952595,0.135089280649503,0.952032756528113,-0.160408151428861,-0.119681292045187,0.128791045327129,1.4448852146324,0.686398374233498,-2.91997833900074
465,465,0.0418644216873834,0.133926788771527,0.953498741574798,-0.167083691954963,-0.130002283531906,0.122145408867551,3.91353938197903,1.55466003257414,-2.5111271299231
466,466,0.0410313944767878,0.132380453187983,0.954647947147349,-0.146945169582302,-0.114184092700758,0.10866118674497,3.59654135926979,0.971838797758164,-1.16029736722076
467,467,0.0406815801331515,0.130374406630436,0.955621391280841,-0.0946712555670336,-0.0992992820064042,0.0895023569818073,2.00804830775697,0.651712502564133,-1.33048687076327
468,468,0.0407554108147951,0.128340664438986,0.956388043758945,-0.0316928845896975,-0.0893090851062867,0.0669598599008943,1.97819670596604,1.15116811155554,-1.3487881315148
469,469,0.0411904522345128,0.12671160402756,0.956917434732865,0.0271325039782722,-0.0746053390662962,0.0427901497828766,1.33449100745842,0.898820224787423,-1.41269169734581
470,470,0.0419217249388598,0.125918044388704,0.957178959695943,0.0671066406618627,-0.0501384274119754,0.018984022658468,0.354852536700199,0.471068189290931,-1.71871686478838
471,471,0.0431214162524524,0.126076652273158,0.957161675063934,0.0846414988657895,-0.0142483876258786,-0.00465602068772313,-0.327997257488118,0.219312142371968,-2.19010126601304
472,472,0.0448293302775552,0.126899923496736,0.956888939482222,0.090989874906657,0.0272030237430333,-0.028747581979695,0.150316089426023,0.716596596425616,-2.40571849017757
473,473,0.046781216357818,0.128209966641285,0.956381456461824,0.0911231272992152,0.0694880318619503,-0.0524683309884445,0.778772282745746,1.5051204696388,-2.44308239232657
474,474,0.0487134478375951,0.129829528324105,0.955659677972173,0.0902115185537163,0.103686670958395,-0.0757190520550795,0.756786737838438,1.88870427959903,-2.59081267353894
475,475,0.0503630599095525,0.131582852968995,0.954743483831403,0.0904054867120865,0.129049118726073,-0.0968740331056994,0.511149912185541,1.47930717801339,-2.51944116030142
476,476,0.051636712174648,0.133666540499616,0.953541842527216,0.0880376929884096,0.150434884839696,-0.116336572906551,0.495968825188166,0.854050519345772,-2.30142430922907
477,477,0.0527071966535949,0.136195318579249,0.952048036604371,0.0812906475974021,0.168402631350804,-0.135070207676207,0.512996942608016,0.503030117176012,-1.98010921506958
478,478,0.0537113171860982,0.138873176495154,0.950407092771358,0.0741957748162886,0.182197673432253,-0.151388897536626,0.432206432161844,0.119521514492779,-1.62522554662847
479,479,0.0547860594269534,0.141405877339174,0.948763013740656,0.0701889127610034,0.192189184437835,-0.163785020532626,0.158273179969155,-0.312295864672602,-1.38113724031143
480,480,0.0560685202182115,0.143500734547838,0.947259545285366,0.0711856308759385,0.19892082624375,-0.171141315197555,0.132608235019191,-0.5851043586333,-1.07755486491452
481,481,0.0576841413427951,0.145076756926642,0.945785878534217,0.079548293039135,0.197095791177634,-0.173521707667473,0.255666849323842,-0.528795388344158,-1.29482467036064
482,482,0.0595384267549159,0.146329268191613,0.944261188326243,0.0925965305794456,0.188566733654542,-0.168770713187788,0.262903109941807,-0.307312617141144,0.315491768727486
483,483,0.0614406695969421,0.147382339708163,0.942869373074761,0.1155767210958,0.177626824032554,-0.15078762456092,-0.712834201031211,0.389263761316277,-2.29116710860589
484,484,0.0632023367149125,0.148362235197245,0.941785510872912,0.133787795314854,0.154370504571665,-0.140512304787397,-1.00126534724189,0.372431912711463,0.0381964853951126
485,485,0.0646348913164514,0.149396114778702,0.941177073886305,0.141781960800671,0.114341736386595,-0.124952621790203,-2.15893857941654,1.79108025593412,2.45713738992551
486,486,0.0658721359237848,0.150577465212313,0.94121000175334,0.142081761241438,0.0891045727355212,-0.105059643151425,-2.16669714876223,1.68299463910223,3.92580285868788
487,487,0.0670277480506466,0.151821007960225,0.941789542713683,0.142693786563875,0.0826128222074077,-0.0775022653055436,-2.52904032546938,0.386177872359861,2.96745022623936
488,488,0.0678873737274101,0.152983655047797,0.942675926223051,0.141715063896345,0.0719393141887637,-0.0472364886423134,-3.38910807983938,1.5291699841028,1.8920304070949
489,489,0.0682489767344172,0.153921992471307,0.943608962635017,0.128019137312757,0.0634704034227493,-0.0171017707944346,-2.57708912237255,2.04984295934675,2.32582091139592
490,490,0.0679239762717775,0.154493287977418,0.944309092647736,0.103292108956775,0.0717097865476749,0.0082510074666521,-2.16015163176648,0.269481189089476,1.42433211437084
491,491,0.0665899886583535,0.154432170204369,0.94461056573308,0.0825804578229704,0.109578880816925,0.0424976628669757,-4.51498128163412,-3.56982697473253,-2.46518544736801
492,492,0.0643758857898658,0.153828653290233,0.944691335955664,0.0428111907973668,0.116500922062927,0.0969153708110516,1.49656066637004,-2.73055121304258,0.101846973693923
493,493,0.0617802650609864,0.153078244176145,0.94477360639197,-0.0293754424230352,0.091436497557654,0.145417513144673,4.33180201480921,-1.58578545809768,5.21804349179252
494,494,0.0593066269768529,0.152579535887817,0.945068890789608,-0.0850249393113427,0.0616256295005774,0.181583367470087,0.563858083721159,-1.61164243301422,4.19575256901039
495,495,0.0574644355672777,0.152732930187731,0.945776151623659,-0.129516224328132,0.0558114285333484,0.198875094320218,1.80662333922351,-2.65920394907274,4.26622984283558
496,496,0.0562749497171941,0.153722526021751,0.947056244496486,-0.155441867187237,0.068026345112849,0.198075271434043,2.24614167122526,-2.82111160534252,2.62593782066582
497,497,0.0554073159001289,0.155287089682527,0.94876081092441,-0.153279973578103,0.103770892652553,0.188061547375828,1.04921855413809,-2.50626965165917,-0.347592433382346
498,498,0.0548457050707111,0.15715929119335,0.950619921800345,-0.130441331109573,0.147144098004332,0.177265430320653,0.242411677718592,-1.94684077596644,-2.87424093616418
499,499,0.05457400118065,0.159069421339842,0.952365543691552,-0.101058523229082,0.17114020586546,0.165857651480269,0.0740297254076542,-0.948986762313283,-2.81529848037998
500,500,0.0545762234163283,0.16074545321487,0.953731251317115,-0.0751839462522857,0.168880530146636,0.152581375648791,0.11941203324848,-0.724201132233309,-1.61752030430718
501,501,0.0549660285117831,0.162355707227717,0.954717532389488,-0.0508951346254441,0.158378723712997,0.133779775513136,0.550458876356866,0.00214926782256861,-1.99455477501864
502,502,0.0557578531760844,0.164079778849831,0.955498551557695,-0.0250881167184624,0.134537522278933,0.10654809011991,1.10155879972807,1.41680088387884,-1.39126884847404
503,503,0.0567854448301676,0.165660849793513,0.956069645614277,0.00649080642462106,0.108095702261503,0.0757024830317479,0.402545449786469,0.672223124840587,-1.7699613720301
504,504,0.0578803781017,0.166842328877071,0.956426501200627,0.0348078958201103,0.0860907518200493,0.0459218292799365,0.250237337333876,-0.451934491426268,-1.97708014607286
505,505,0.0588725751877275,0.167369236003582,0.956565621523887,0.0511302494831636,0.0708043545736661,0.0201159246191361,0.289241057124741,-1.12591691398704,-1.76461595873191
506,506,0.0597869152171957,0.167055326627424,0.95646324699014,0.0565869672533065,0.0557127538845368,-0.0026246195632541,0.625703263336447,-1.60016857174669,-1.67239840309717
507,507,0.0607330513049091,0.166073832053832,0.956127294548694,0.0573789415662625,0.0320271224802175,-0.023428197178095,1.14941784850507,-1.70967008998538,-1.54830573920342
508,508,0.0616678043710953,0.164710146979242,0.955602819301701,0.0593714425577094,0.00166066924519636,-0.0415414975855918,1.0951884701637,-1.43658897249827,-1.487232639795
509,509,0.0625478054571539,0.163246932081761,0.954933490392812,0.0616310820059654,-0.0293115512830184,-0.0575246131259718,0.68721013318634,-1.02983723940803,-1.70925809607182
510,510,0.0633292707978086,0.161962894950307,0.954160722204038,0.0595649557398046,-0.0530274385997971,-0.0724541224913068,0.62879097142947,-0.689176850711005,-1.66731993379458
511,511,0.0640047694260625,0.160834101398014,0.953261324245468,0.0493176823740145,-0.0648211372428408,-0.0847118676082152,1.02113053033251,-0.00281970608772001,-1.49698195755765
512,512,0.0645978431616441,0.15967435387164,0.952219858815848,0.034208013823933,-0.0710961119748372,-0.0947248809355363,1.30111083297187,-0.0166791408405632,-1.35953450086981
513,513,0.0651128008388546,0.158513824743826,0.951083196354164,0.0204958006943333,-0.0736975094979421,-0.103519850152807,0.885487297950065,-0.227366156736658,-1.48044722658497
514,514,0.0655566572486943,0.15738031133464,0.949891111977469,0.0131749299177132,-0.0775185514540362,-0.113141258043137,0.642004745462762,-0.413640726439688,-1.42467962748386
515,515,0.0659389399869178,0.156299945945175,0.94867623015329,0.0199295969474185,-0.0851948231886859,-0.125198142728218,-0.0473718839245976,-0.573216485539026,-1.28890403276758
516,516,0.0662497217912173,0.155256676211933,0.947334329212677,0.0220706092944062,-0.0954860030054479,-0.135127385307419,-0.713035958644991,-0.23108625305375,-0.91439399725849
517,517,0.0664826468685566,0.154225276798569,0.945843903069738,0.0235079125542993,-0.10784947803212,-0.148226115100403,-0.230820421122382,0.205603892718073,-0.232056799815222
518,518,0.0666555673261159,0.153221437144442,0.944356713265733,0.0243818524421572,-0.113279304801004,-0.154404168253998,-0.935537152279862,-0.417001741559686,0.527431664834299
519,519,0.0667876426993348,0.152265509922441,0.94302399248362,0.017522151105013,-0.112356567152455,-0.150033649293899,-1.67352401053354,-0.0359416113921339,-1.97908884032062
520,520,0.0668984586266537,0.151381904391482,0.941997424207208,0.0277375529122299,-0.121364786879001,-0.14651134854107,-2.24061870527639,-0.653318934987984,-0.368514642136044
521,521,0.0669799321549558,0.150494308127395,0.941294169771765,0.0286987825929814,-0.125205304723634,-0.124546101617601,-2.42535731939729,-0.894272460446631,-0.251656723145738
522,522,0.0670178933963513,0.149589856016081,0.940828648468323,0.0268278057793264,-0.112666543157115,-0.0908370380404384,-3.16944760393967,-0.469842724514269,1.49721806977719
523,523,0.0670238978155911,0.148791725932757,0.940589607723028,0.0229568630507171,-0.104270661312667,-0.0480950710992785,-1.62724059188796,0.665772324306239,1.9635136368481
524,524,0.0670115508109115,0.148224610431565,0.940550008631901,0.00959244420971823,-0.0720422123679728,-0.00332005013987258,-1.23771310603081,0.0947589109170556,3.48107972766976
525,525,0.0669967919948289,0.148014041694501,0.940667543304362,0.00809997978967488,-0.0276516433497013,0.0325653636635838,-1.71830415698139,-0.200487617595086,4.87982436330018
526,526,0.067134469600968,0.148385979161034,0.9409129161295,0.0228499470322533,0.00971998533410436,0.0527495715656204,-0.646058502780317,0.120164857999991,3.55737028695131
527,527,0.067410753866507,0.149256424349771,0.941306722569087,0.0364084786951595,0.0393196314419649,0.0669061868406547,0.0226866705606343,2.29367828245477,1.82940673335783
528,528,0.0675926710891233,0.150286870194229,0.941870630807638,0.0494961038211544,0.0745298618584105,0.0782784979175139,-0.2998697463108,2.53804264547326,0.512187995483323
529,529,0.067451639880588,0.151143636607987,0.942620674774451,0.0582559878461031,0.0911151839124821,0.0853893861327864,-0.907075974655082,2.17882300499403,-0.48065638019515
530,530,0.0667640718687724,0.15149879382956,0.943565943868373,0.0389376965989054,0.0810745820704392,0.0930643627140802,0.887127886225125,1.90568783406318,0.692179939199559
531,531,0.0652471255365808,0.151315553856309,0.944817970395475,-0.00844482371068315,0.0656573031859602,0.109411805469379,2.80694986101914,0.326668651674763,1.70783234901836
532,532,0.0630553413034916,0.150819132535263,0.946361275170428,-0.0621442119836742,0.022838754946412,0.127234372228312,1.94386195415659,0.0797742678671529,1.17011528483548
533,533,0.0606245331910682,0.150072967502978,0.948009079674798,-0.117035122310995,-0.0376358849273879,0.139570769929521,1.8935405917717,0.130725476627593,0.926212436507458
534,534,0.058390301812674,0.149135577625007,0.949573027785169,-0.15601107164348,-0.0930477416614834,0.148911441824776,1.51396028140926,-0.0557047060323467,-0.360161573585188
535,535,0.0567882724616224,0.148062405081589,0.950863998494671,-0.168554799427117,-0.126984763351401,0.15135274910513,1.41500036878105,0.107756268407032,-1.9575041650557
536,536,0.0557729844214839,0.146609374500643,0.951917925821514,-0.150332272073707,-0.140053777223439,0.142173581662113,1.79143550204503,1.18853224562276,-2.53825272210974
537,537,0.0550583253730756,0.144735711235379,0.952855032397757,-0.112646637997257,-0.140427615118332,0.122367729815546,2.19023141510135,1.2373097704487,-2.26750702523197
538,538,0.0547180786651921,0.142802966734871,0.953614447663258,-0.0697670643255479,-0.128679594004504,0.0955343463443512,2.3779829998112,0.593221742327844,-1.53318824177961
539,539,0.0548239648159635,0.141173621347385,0.954136497040305,-0.0254698228706524,-0.111916931834432,0.06716173466277,1.79049622783466,0.404818855589694,-1.32015504201789
540,540,0.0554457668213919,0.140209165983424,0.954362037349197,0.0116811706526952,-0.0915590630116028,0.041382754667473,0.910937042941789,0.610657616343482,-1.54886091751947
541,541,0.0568374807054057,0.139977531896805,0.95425549836803,0.0402391848522762,-0.059433573962395,0.0172247897061028,-0.344185119175639,0.377271167654446,-1.84925625840245
542,542,0.0589495162346667,0.140237604947853,0.953859937162491,0.0620596923332708,-0.0199244322437788,-0.00729797351039449,-0.539489496895267,0.627265512293284,-1.89201731011944
543,543,0.061395417517852,0.140885480408618,0.953234034126127,0.080514150172282,0.0197728561316211,-0.0306601313916388,-0.290452902361958,1.0421882601447,-1.98934418249439
544,544,0.0637892082769183,0.141817688826798,0.952436113941331,0.0980933641079806,0.0586164986574168,-0.0518236454793121,-0.116697981738015,1.28388568486918,-2.13740074448831
545,545,0.0657456594738062,0.142931741507041,0.951524118375242,0.11088820117668,0.0885782154211305,-0.0707459966234119,-0.23195846178578,1.38716779193182,-2.12993525061444
546,546,0.067180146673854,0.144381913140151,0.950411372685124,0.113507241880613,0.110121788757589,-0.088844319520633,-0.458900683536297,1.21910818641518,-1.90747518929703
547,547,0.0683465675868718,0.146233957055594,0.949067173042926,0.105678058938234,0.129827141626036,-0.106262326153011,-0.489859304482382,0.867685083447253,-1.54236715889435
548,548,0.0693687991105312,0.148254952832768,0.947631977520728,0.0930763853847223,0.144395930602853,-0.121280098990415,-0.408888088551738,0.716825675918437,-1.36745595695611
549,549,0.070371467587792,0.150214280378067,0.946244281576735,0.0792135345558451,0.155902569204871,-0.131527982730718,-0.0483536300984373,0.24956464538577,-1.16751917168796
550,550,0.0714794903337847,0.151883374142498,0.94504104646955,0.0672664555302492,0.161958020290694,-0.136501380732299,0.26244918732133,-0.266275496202301,-0.567366744276071
551,551,0.0728474103458669,0.153265780285284,0.943982156588559,0.0617944853815414,0.158038910663076,-0.131548237148791,-0.245141183320372,0.0908705806141407,0.298954289411301
552,552,0.0743884026135797,0.154515267465726,0.94299023418421,0.06197143583119,0.146121653842177,-0.115460332172764,-1.15401966338594,-0.0696206625258618,-1.11116215841176
553,553,0.0758674196558544,0.155629842815323,0.942139894802585,0.0655427149778907,0.132144299989822,-0.101914546381803,-1.12503493690411,-0.536992852075217,0.426854771599856
554,554,0.077052393971635,0.156607705068902,0.941496778316052,0.0736080767122229,0.114171510808412,-0.0862101333487347,-1.70936148522962,0.594261587334169,2.00742398578249
555,555,0.077712978216762,0.157446536350203,0.941119242794834,0.0801052923356383,0.0968793712598864,-0.0707909957693248,-2.3334740957702,0.30560386137547,3.41268538497436
556,556,0.0777769467356723,0.158192384838877,0.941045894013272,0.0904238978208729,0.0930874294210244,-0.0543091322494216,-1.71205057281043,0.415558398434853,2.45100857452817
557,557,0.0773897293493213,0.158844378515073,0.941250191974335,0.103012173921467,0.0710602708902301,-0.039057067934866,-1.67693479352735,1.18234163453501,1.02493827233913
558,558,0.0766516828681124,0.159328114648062,0.941681153178001,0.10677092425746,0.0517926141114365,-0.0215972858229764,-1.40863682600364,1.04207236311939,0.55070648188848
559,559,0.0756716251248531,0.159569499931053,0.942273086196998,0.0980068101431359,0.0407444371971838,-0.00326887874624676,-1.40728224167228,0.696068910999697,0.707102144738488
560,560,0.0745677472548927,0.159495726767279,0.942945089670039,0.0772372756580889,0.0403482960157704,0.0170319613670182,-3.02702771547786,-0.527649709438688,-0.154162763928076
561,561,0.0732163700517131,0.158811859250431,0.943647652593948,0.0460460758914006,0.0578008247198189,0.0525417909706045,-5.07438697007797,-2.54287620537188,-2.63529468065844
562,562,0.0715380763720749,0.157563620404503,0.944430021121977,-0.000143068132390969,0.0333457670695297,0.108572269871645,-0.939797015560112,-1.92065909621542,-1.62292503410433
563,563,0.0697265313898649,0.156194146214319,0.945345715412097,-0.0916807230924436,-0.0110606799415622,0.159062645729268,6.94764349584767,-2.40529253835609,6.14180960741146
564,564,0.0679817093977169,0.155148878308744,0.946439124415172,-0.152718204585437,-0.0383767490271971,0.19813256331925,1.80672989441745,-2.47349131562694,6.12588217431783
565,565,0.0665105122738709,0.154874074415183,0.947744627994282,-0.187101509057638,-0.0408752298072297,0.216382830105716,1.16839031936706,-3.18860314470882,4.21824090324305
566,566,0.0652786127379237,0.15556949967087,0.949405814680385,-0.206682810738739,-0.0176450892385429,0.213332893444534,2.68957947606497,-2.56983827364144,1.82016032814759
567,567,0.0641566589475334,0.15694354911262,0.95138454978915,-0.206347424687186,0.032043228628434,0.199004224893017,1.95887520131608,-1.51316864974848,-0.84589224081428
568,568,0.0632127888493762,0.158704204994614,0.953437392131916,-0.182512220593977,0.0849319142253176,0.183004813701582,-0.781051540223018,-0.643416989303485,-3.4329210979226
569,569,0.0625157457880736,0.160556767453848,0.955322030150645,-0.153117385443268,0.125031423364096,0.164799257364635,-0.207013130541953,-0.287788197608865,-2.97651573687318
570,570,0.0621353297913796,0.162204148129994,0.956797711255864,-0.127206403747136,0.141556903526501,0.144547687582742,1.1657731042535,-0.84018134256929,-2.7083442883444
571,571,0.0621399639970028,0.163867621446582,0.957857925970908,-0.104043229932044,0.139542530109728,0.119758227925402,1.64337733668014,0.47473183137335,-2.92488950288177
572,572,0.0624882255453585,0.165742620725018,0.958658582342234,-0.0754130637236902,0.126535580671514,0.0883206487097138,1.49859497646132,0.980335777237661,-2.26455934576707
573,573,0.0630839020284422,0.16749204368093,0.959204451535398,-0.0402984423758339,0.107526541185656,0.055975176471915,0.76835450266185,0.259079589236566,-2.17658682718784
574,574,0.0638282971679284,0.168779513724979,0.959500713735447,-0.00562411975390887,0.0910408518537023,0.025632740018775,0.755874020528264,-0.801165058539748,-2.23385143757318
575,575,0.0646206924487504,0.169270119257797,0.959553095670542,0.0184244944882827,0.0789269004763366,-0.00117035206998869,1.29347992298852,-1.54033685999589,-1.57410862247461
576,576,0.0654896022601579,0.168752185465902,0.95935867391293,0.034042419136538,0.067012138757618,-0.0235406368155082,1.9438678008844,-1.41459117295102,-1.00185754794142
577,577,0.0664973868894367,0.167450521025521,0.958919512328706,0.0543085749852662,0.0436091684576735,-0.042889778363895,2.26060461921412,-1.32057775940549,-1.05163806226227
578,578,0.0675937501697505,0.165685967476917,0.95824949637478,0.0786230735452531,0.00744340033180825,-0.0601745915679602,1.75744164781084,-0.778771835448266,-1.38264594819949
579,579,0.0687289502973174,0.163777895529018,0.957361200856128,0.10018177595293,-0.0382001081655331,-0.0770084193994038,0.733224335678287,-0.469402611214829,-1.86243036032053
580,580,0.0698537822475822,0.162043561775145,0.956265132027652,0.111602606563867,-0.0807960328092016,-0.094837411978246,0.423450235779567,-0.536821139653964,-1.87667414728374
581,581,0.070995599793869,0.160440274007427,0.954888067098036,0.107848004732761,-0.104354343716022,-0.112118669205938,0.294363593389636,-0.381755492700729,-1.92854071802591
582,582,0.0721817886929966,0.158756845627046,0.953235751151551,0.0924014806463024,-0.117746756145816,-0.129418432116195,0.721578732330615,-0.645088205775545,-1.78028502279694
583,583,0.0733651577265118,0.157054233564547,0.951431607828835,0.0699214412279665,-0.127387838399207,-0.145340462040312,0.964793173483138,-0.624553397533249,-1.56883844876948
584,584,0.074500776158104,0.155390618694723,0.949592979035956,0.0512910877678279,-0.135517245402756,-0.159168590435653,0.252920233176635,-0.44755468835107,-1.47107408998498
585,585,0.0755457295727846,0.153821775395,0.947831542073589,0.0420218682968529,-0.143973968414314,-0.17019095905016,-0.71281795718961,-0.325096473372196,-1.45426799272259
586,586,0.0765456330562345,0.152280995919702,0.946021108051599,0.0393283075052446,-0.153203307623687,-0.181024001019347,-1.00366367628614,-0.381206755286182,-1.46854998325863
587,587,0.0775270958641508,0.150722239113344,0.944094830036194,0.0412380800803616,-0.159151412980691,-0.189558400281968,-0.398709595227758,-0.762583789276447,-0.430501200293108
588,588,0.0784220250070862,0.149235142798471,0.942247102945688,0.0438758834240421,-0.163407167134027,-0.190070245831597,-0.748728652777637,-0.626778398892715,-2.36652067800978
589,589,0.0791646568553766,0.147914858572955,0.940667559598399,0.0568675299822956,-0.166882662490068,-0.191833222655995,-1.75052840107695,-0.537569430605507,-1.16541377837095
590,590,0.0796899462656288,0.146862089946663,0.939542330109034,0.0632004339236078,-0.156101823021247,-0.181629443948183,-2.62065915090088,-0.817733767154338,0.730012500815692
591,591,0.0799625678083956,0.146100004809632,0.938943830337173,0.062871786515928,-0.13220866559159,-0.156875034803249,-3.10370975282988,-0.790343871124496,2.29949315718836
592,592,0.0800182599342621,0.14556551985334,0.938769201320617,0.051759128855936,-0.114868137611898,-0.11424722903301,-1.53604948582729,0.438229537363481,2.27462836644456
593,593,0.0799021621020094,0.145237239658623,0.93892420833732,0.0250517399965743,-0.080514747361523,-0.0629157270889096,-2.22423899659179,0.147046870326796,3.12640084845429
594,594,0.0796676519202706,0.14509795852109,0.939288485563662,-0.00935301436000604,-0.0458908118729094,-0.0134703568710562,-2.61333591579049,-1.22506025792752,5.21891062948109
595,595,0.0793779465603861,0.145133018570188,0.939717203368814,-0.022318748556489,-0.0274714900725214,0.02598152945605,-0.612772674437091,0.136072406859035,5.3349354206825
596,596,0.0791531504465198,0.145631492841821,0.940143461232237,-0.0185478426069493,-0.0184169642191902,0.063383322969728,-0.106058744708639,4.11634047570077,3.25974239151498
597,597,0.0789550317284575,0.146610067338053,0.940644690065154,-0.0215294014706637,-0.0175416214418971,0.0973876647040267,-1.03350131016472,5.36049628062135,0.784696852999677
598,598,0.0786179718181982,0.14764020732095,0.941280712469939,-0.029752114139311,-0.0222758743202869,0.128424670980039,0.863567136465599,5.41620318771603,2.35769877392707
599,599,0.077978694029173,0.148293047356611,0.942106591437001,-0.0451240847208021,-0.0144590970947753,0.151372375057994,1.23714273167062,3.51697945907307,1.62564111283091
600,600,0.0768763521352334,0.148141882260551,0.943169973146111,-0.0716067653578458,-0.0161307299773483,0.16521762010441,0.587705859157621,1.20782977815343,1.79912892006175
601,601,0.074888611998168,0.146894764521178,0.944622619934245,-0.105904053792966,-0.0357811367852674,0.171639064570739,1.78913235958094,-0.928493574890889,1.75994385973595
602,602,0.0721294193762232,0.144828148598075,0.946421947572763,-0.133978912127083,-0.0836028055531809,0.171832170142932,1.38848600641605,-1.88144361218972,0.0346220033203864
603,603,0.069243439982994,0.142371104563718,0.9483205470299,-0.152733673406268,-0.146596869745676,0.169145116333924,1.56354401442322,-1.24518703003161,-1.13668104153746
604,604,0.0668754914597461,0.13995908295479,0.950071317861416,-0.161821286888456,-0.197134251890922,0.163911618049927,2.45649424979685,0.571462333906394,-1.17074648747687
605,605,0.0656710603493814,0.138033642850895,0.951427763304331,-0.15048405916103,-0.215599540433198,0.154999639495154,1.7978078182658,0.741570179772782,-1.42680298863043
606,606,0.0659088086916834,0.136520199285298,0.952375494390661,-0.120490153483559,-0.209249166691361,0.139353794320349,1.23595177080896,0.729412696505195,-1.69210056489101
607,607,0.0671624405850518,0.1351295021301,0.953075718355515,-0.0753490435348714,-0.191721306458993,0.118325627561596,1.30014954546885,0.904893777985972,-1.74157391798635
608,608,0.0690188020713948,0.133983144796418,0.95354685838392,-0.0280082830346209,-0.161620552364438,0.0948259631661832,0.806412094288098,0.604968437285054,-1.69452255414157
609,609,0.0710619558312111,0.133201602409075,0.953807707315988,0.0136964697907682,-0.125663393159394,0.0705241208898677,0.275405291843727,0.636411722930432,-1.73744621143644
610,610,0.0728737777687328,0.132903839336046,0.953877037009172,0.0397094606334188,-0.090301169086456,0.0473465666719593,0.221720513174252,1.07983069994012,-1.34979686225705
611,611,0.0744839870531511,0.133159645354772,0.953740880422317,0.0559170700710952,-0.0530460060807713,0.0252911246658232,0.166222966359919,1.3714022984867,-1.57259856018549
612,612,0.0761676322960082,0.133887246589044,0.953390917597126,0.0707956155478729,-0.00543089825353009,0.00364421836590013,0.337179159019566,1.92897931291914,-2.05373557033468
613,613,0.077874242461956,0.134977298367283,0.952854328285963,0.0833393042303836,0.0476616060127006,-0.0179941587180043,0.522431181197132,2.28424001293052,-2.15472760490021
614,614,0.0795533612175943,0.13632218228076,0.952157615313281,0.0944913590001273,0.0942402854228379,-0.0392415836342089,0.585991356802003,2.05637656625246,-2.28259741503906
615,615,0.081154273560545,0.137816661581332,0.951326364116659,0.103828147134307,0.129079464328819,-0.0589652039785599,0.676174836968417,1.28911616120697,-2.10006727987594
616,616,0.0825877857172641,0.139618907180925,0.950249305386243,0.113949596685775,0.150271381745811,-0.0784868238578474,0.584769207135805,0.870994257563058,-1.99848891573762
617,617,0.0838841312739853,0.141798026396638,0.948916870825186,0.121498952431881,0.164212035346281,-0.0982456249991612,0.325709747884101,0.586041410775283,-1.81360699564706
618,618,0.0851717068313476,0.144118296882073,0.947505717693185,0.125681755691856,0.173721135165511,-0.11669646912368,0.169249747906585,0.214551640844029,-1.68788874762538
619,619,0.0865792960153014,0.146345708081731,0.946191560936782,0.12826682824748,0.179884175875997,-0.132561276164157,0.489232111468026,0.0230755274488537,-1.34896092744791
620,620,0.0882358348477307,0.148247375951952,0.94515043695482,0.13024342303813,0.191539784003573,-0.142192213888013,0.596098518559226,-0.541068616481917,-0.782798856590555
621,621,0.0903723760301747,0.14981124449432,0.944410100136011,0.134534378537389,0.204252851637209,-0.138577857059246,-0.591042814614805,0.0605904174074906,0.918934176585405
622,622,0.0928968353610364,0.151194031576978,0.943874611325313,0.140944863630212,0.201667268956372,-0.120437654977536,-1.81145400234626,0.674562635320111,-1.33420030423742
623,623,0.0954565897185003,0.152415360330364,0.943526010056733,0.156391015103692,0.182754142037051,-0.108888146178555,-2.44465529380115,1.53270949349904,1.11611120090797
624,624,0.0977028968022439,0.153494034588181,0.943330658269823,0.174040483657372,0.148895382731427,-0.0934229419723793,-2.39735003212616,2.8683276283703,1.48553968325133
625,625,0.0992892448256993,0.154448305200265,0.943240650126479,0.179747835965336,0.120245025188879,-0.0833288173133593,-1.98984873175275,1.74473372463714,2.03831531728744
626,626,0.100302213481084,0.155262789273635,0.94326578186402,0.180179528032288,0.0917487417008401,-0.0839130803717423,-2.54159039267487,1.51895143961075,-1.71808261061597
627,627,0.100961975374914,0.15592283532634,0.943446385228727,0.151979349774988,0.0375381416280121,-0.0946015684806596,-3.21920012381557,2.06366945681069,-3.34769800364556
628,628,0.101130123193206,0.15644679380026,0.943762850530121,0.0998798228754038,-0.0202874143044232,-0.107132484506531,-3.85068130786932,1.23528428207606,-2.80107010210094
629,629,0.100681100989785,0.15685255875842,0.944178289525723,0.0630828834910576,-0.0540373242573333,-0.110736847670169,-5.50940977221901,-0.0128262743490349,-2.33120231360127
630,630,0.0995030312717543,0.157157525940848,0.944638261301976,0.0311562716126569,-0.0398125677158737,-0.0849308824287155,-2.26778841435147,-3.38896509773772,-0.271784711011521
631,631,0.0971308820692628,0.15717451265016,0.945054137585042,-0.0225164403346379,-0.00814562417647698,-0.0268640422009315,9.41601530542292,-7.65483554051466,6.88208841438638
632,632,0.0936471480409736,0.156887339399753,0.945450357915964,-0.0377105438345172,-0.0033052751628756,0.0515602294470673,4.15280874774939,-3.90732364518265,9.64435712786526
633,633,0.0897701148760949,0.15657430544997,0.945929580873435,-0.0375154934567268,0.00874457448142259,0.129860459684805,-1.33902807351808,-2.38208862268586,4.9118879632245
634,634,0.0862211439660121,0.156516972173552,0.94658702032633,-0.0629002260997764,0.0239707846206655,0.19243528572861,1.72807070124656,-2.97413872574428,3.24057212377515
635,635,0.0837258333387306,0.156998939839043,0.947509421454092,-0.0802209687705896,0.047136493332607,0.225108127239503,-0.10613612804072,-0.472328016976038,0.437026979269887
636,636,0.0824179916464451,0.158193633416679,0.948850926743622,-0.0887444941406693,0.0844281004608181,0.228113443429761,-2.61314128714449,-0.2434433876392,-2.80216916447471
637,637,0.0818215170877792,0.159922056340163,0.950540413883739,-0.0984270761457978,0.129192663103234,0.212602252813759,-0.422518846477293,-0.117291972571671,-3.00150758299645
638,638,0.0817489120707865,0.161936915810654,0.952324319564384,-0.116924604074864,0.158279490339419,0.182261775248587,1.99597789711239,-0.109145630047231,-1.24538230591874
639,639,0.0820127298132313,0.163983718147105,0.953950397164308,-0.116561651084961,0.172728696586228,0.148481542525836,1.38843305791721,0.724160958468243,-1.49726770668353
640,640,0.0824259550842267,0.165801931033946,0.95516748648386,-0.105414419891841,0.166831839468071,0.120261474406293,1.61189789409699,1.26608595872943,-1.80842173335569
641,641,0.0830947207951276,0.167532630203869,0.955955122686566,-0.0962238385240939,0.14431438350912,0.0987382343638171,0.512047177164673,1.46269197082864,-2.26945124988925
642,642,0.084146342227403,0.169344128035986,0.956479891590142,-0.076293221858136,0.12683200187345,0.0791144796961264,-0.181447704735561,-0.648897101126271,-2.483380904917
643,643,0.0854242893814037,0.171015763961467,0.95677216382964,-0.0542469654948286,0.114099040174795,0.0618223457339019,0.474237533568981,-2.28887248183236,-2.07345264313116
644,644,0.0867700911103967,0.172328189791067,0.956862109190301,-0.0349023834013896,0.107826609389382,0.0443714336893578,1.09259178844793,-2.77668600737184,-1.47422853624322
645,645,0.0880237349772109,0.173063124000729,0.956779783138507,-0.0210995038965507,0.0997610174454513,0.0249116507522479,1.73999807697155,-2.73047324201737,-1.01835568711813
646,646,0.0892171372856243,0.173086555873303,0.956522395008256,-6.41601225127963e-05,0.0836038269860911,0.0041157967630624,1.70278850427626,-2.34104678383189,-0.967665395925856
647,647,0.0904512831880989,0.172547529837327,0.956077206839476,0.0314673596974593,0.0587201347404655,-0.0170086636915839,1.38223714384101,-1.54044557540585,-1.39922668129761
648,648,0.0916699249438784,0.171652206580928,0.955459107760057,0.0638773713121683,0.0269410490793354,-0.037722231044337,0.518526478350481,-0.543480605877701,-1.90744257265704
649,649,0.0928177946492072,0.170604316265249,0.95468120475571,0.089624154672789,-0.00202142277349815,-0.0582796267770194,0.107835205300592,-0.225257447629513,-2.20452343867375
650,650,0.0938405544484683,0.169604515882799,0.953754280361325,0.10181628729568,-0.0235294785790078,-0.0789036146304758,0.128594674287431,-0.150996754203363,-2.2032019181122
651,651,0.0947317363606755,0.168619908426049,0.952624226488612,0.0913328847013074,-0.0391949443095826,-0.0988109682315337,0.563738544387534,0.0810644574326949,-2.20885624685854
652,652,0.0955222407013817,0.167515323281471,0.951297651173061,0.0729839895766615,-0.0539096595672146,-0.120492796195759,0.527283352755291,0.223758038968511,-2.25560489376172
653,653,0.0962170776296433,0.166334855584904,0.949869619706561,0.0608435875412327,-0.0655621648322099,-0.141803764607557,-0.875270826865174,-0.124158765604971,-3.16903412945568
654,654,0.0968248750431698,0.165121732319729,0.94842730752642,0.0508519944708499,-0.0765651335157015,-0.161123359743285,-1.19413977417228,-0.0302749794449215,-3.13842045980457
655,655,0.0973572046105266,0.163918987116875,0.947050490621898,0.0413811566813682,-0.0948273970847345,-0.171360111143669,-0.732474549408411,0.368158163561109,-1.21718469445033
656,656,0.0979098068888198,0.162725819747002,0.945582145490417,0.0172234787785637,-0.109566637171194,-0.167631877642592,-1.40677593114787,-0.55689111313395,-0.986922642545817
657,657,0.0984750428110061,0.161510101027148,0.943974460970657,-0.0065168806027255,-0.126475543104237,-0.162070046551145,-2.2116279011325,-0.0725160306094949,-1.15274491544556
658,658,0.0989124290997259,0.160270236031009,0.942461709748665,-0.0159070892932449,-0.142041615840057,-0.155499416942008,-2.19091018582295,-1.15087375443965,1.0246537569415
659,659,0.0990837050927792,0.159006635312596,0.941271348665732,-0.0164620424852571,-0.138874921565523,-0.142168809944245,-3.56712491291033,0.27511490407087,2.40475686563901
660,660,0.0988521648032966,0.157720826530984,0.94062577121322,-0.00306653324748828,-0.141989546861567,-0.118152197173669,-3.74201508006996,0.791503454784122,2.5901165017809
661,661,0.0980989363675847,0.156259946233057,0.940643170763763,0.00308830914913769,-0.109990090445262,-0.0790076448399101,-1.33380828522462,-0.481266052258419,4.14937519450864
662,662,0.0969114683982555,0.154622042418444,0.941184267789131,0.0212743583509377,-0.0594025603654429,-0.0260575239446872,-0.944935539033045,-0.866340042520591,5.43715476438306
663,663,0.0954650692720279,0.153037481408342,0.942075918085706,0.0529852364818591,-0.0232827112510329,0.0318658027635665,-1.24479850767199,0.229452830277407,4.56536180258861
664,664,0.093939347643491,0.151740388779544,0.943131259793824,0.0776850445679433,-0.00269506884979988,0.0877912585500845,-1.85961220581678,1.14183052486895,2.3613628745889
665,665,0.0925189127783998,0.150968876830022,0.944148784615107,0.0880563806370324,0.00792696865762764,0.133552748593079,-1.40376408144967,1.87841329842327,0.778329153567138
666,666,0.0912315441836948,0.151055038425055,0.945098729159471,0.0673146765190309,0.00264657919416514,0.165276817656687,-0.808728634825679,1.66997488791618,-1.02231601982796
667,667,0.0899502267034307,0.151843451876946,0.946112531188716,0.0120909836749384,-0.0255359829635272,0.183053548481973,-1.41122590570166,1.81204739523409,-2.11458540034265
668,668,0.0886359346341544,0.15284365459986,0.947212764373277,-0.0722245554374031,-0.0490976544732231,0.193767799564708,1.73127449195065,0.897077205854288,0.240424404391689
669,669,0.0872588525128519,0.153567211281596,0.948407826446933,-0.153807136690543,-0.0462172134376579,0.196826611474223,3.79969371487589,-0.00301392466699409,1.27366914285667
670,670,0.0857982408463606,0.153527394454141,0.949693658656085,-0.207193445215844,-0.0471091134943762,0.185291596527138,4.25056170820947,0.325815953540529,2.04076554583277
671,671,0.0839832747821714,0.152437068372182,0.951233235139097,-0.210748538338871,-0.0681891759695781,0.171336578734383,2.5990839609389,0.325118351398031,0.905620822452523
672,672,0.0818396978061673,0.150620129675743,0.953010691335283,-0.18450095191072,-0.10213823919872,0.155816629226283,1.53387653534563,0.63481163581326,-1.01484829141668
673,673,0.0797934752386877,0.148504581091624,0.954752065320216,-0.145683442299301,-0.129305655866208,0.136688423505892,2.03460655360958,1.35502877468232,-2.47574789917243
674,674,0.0782681435267431,0.146520643393167,0.956186207549909,-0.102800684301339,-0.145108843560683,0.112916270856288,3.69616844388309,1.7882904368067,-2.97663672969872
675,675,0.0776861500458509,0.145102886604198,0.957043212228869,-0.0693508958530812,-0.132788419108384,0.0861208316011375,4.48739646230224,1.23960099816016,-3.17329223920384
676,676,0.0782871068973423,0.144181855865977,0.957273423895865,-0.0339452205856637,-0.109644788963863,0.05109956726788,2.70393195022307,0.952374969541701,-3.38134098198164
677,677,0.0797872823199729,0.14347111151524,0.95706104272567,0.0100604176758847,-0.0816474900357004,0.00585021599950519,-0.0206806173498785,0.817171344731021,-3.87424439947964
678,678,0.0818236478317148,0.14308181248753,0.95648738023148,0.0454779552252387,-0.0435921377471207,-0.0438120874537025,-0.485630284242146,0.0373947180282411,-3.5089871670815
679,679,0.0840328019530514,0.143122567980621,0.955632026467216,0.0711763579153458,-0.00373426162225393,-0.0900766624985444,-0.229223800329709,0.16191634868846,-3.63215257747109
680,680,0.0860515685264665,0.143698385013186,0.954571719386097,0.0899660884824546,0.0302807775581754,-0.126585647114904,-1.1719047983718,0.613168329041361,-3.83234036041127
681,681,0.0879507943049463,0.145020335810193,0.95316707749722,0.100745570400628,0.0658871174991883,-0.155279911567175,-1.29670656666913,1.00325660093333,-3.42577370785638
682,682,0.0899685909590312,0.147017102267304,0.951373289701543,0.106080928327033,0.109555860505437,-0.180913375304632,-0.957407019472882,1.21953130860528,-2.7147390613803
683,683,0.0919943944657717,0.149366843577173,0.94940592163558,0.106229697756406,0.1539370407731,-0.201309509959478,-0.465845169559913,1.39527147469201,-2.10302946068602
684,684,0.0939186516175798,0.15174768242008,0.947479614551102,0.0995130579292092,0.193766538751388,-0.214485980685762,-0.139514116287532,1.25508243393703,-1.32224640216292
685,685,0.0956325740404415,0.153837851411354,0.945808788368147,0.0880223279260343,0.216350205241418,-0.218773678957944,0.107066027990791,0.632860679925916,0.170087898922391
686,686,0.097142219503212,0.155721993954421,0.944280856511335,0.0697630889265682,0.211900836155368,-0.209507347325376,0.0926949822481006,0.79251587465343,1.35321941234312
