,Frame,CoM pos x,CoM pos y,CoM pos z,CoM vel x,CoM vel y,CoM vel z,CoM acc x,CoM acc y,CoM acc z
0,0,0.0439158050255003,0.0183181139717726,0.949207601521781,0.0100807886200973,-0.00166386491369959,-0.0137204393320723,-0.0881165167112179,-0.000693504482936403,0.0523469241500879
1,1,0.0441178847071983,0.0183112088531373,0.949123924555661,0.00937501892224073,-0.00174761919961878,-0.0135437524437398,-0.178820480827222,0.00496690101234815,0.0184792360696197
2,2,0.0443210176337231,0.0183038012998103,0.949035977737137,0.00878885208863298,-0.00183954568674253,-0.0133253425124158,-0.152979456623987,0.00476288126767138,0.0524090311958662
3,3,0.0445235999709018,0.0182966373181128,0.948950188849666,0.00814644748989158,-0.00201333811326469,-0.013134283248934,-0.140156585190929,0.0382024849471083,0.0358788934629826
4,4,0.0447240309073507,0.0182904649424202,0.94887298222478,0.00754615555624954,-0.00160356521435838,-0.0129139289244497,-0.144831183700996,-0.0222920262433194,0.0472096445589147
5,5,0.0449207124138934,0.0182860338923771,0.948810778615761,0.00743469010378929,-0.00185732076139723,-0.0127183337587287,-0.18042875478643,0.0579390846601118,0.0104403931246122
6,6,0.045113736130251,0.0182830596275329,0.948766417371749,0.00732670042800755,-0.00173529578046756,-0.0126360856382295,-0.127312133704453,-0.0209829504784171,0.0156267171488032
7,7,0.0453041736367317,0.0182810456633222,0.94873560980555,0.00707183850486494,-0.00156451174790883,-0.0125898480973603,-0.158030724198523,0.0238320831134944,-0.0218313328544277
8,8,0.0454918969852509,0.0182804234024063,0.94871408234051,0.00674046503263253,-0.00115633329475456,-0.0126136002113381,-0.083640233783776,0.0261544712872392,0.00803587275842142
9,9,0.0456767763743503,0.0182816230027688,0.948697562311938,0.00661999809947692,-0.000626641720432838,-0.0126243628410766,-0.0554341819779943,0.00403994061091451,0.0141912914886614
10,10,0.045858680521416,0.0182850737967828,0.948681778224076,0.00699322981600056,0.000135353061684006,-0.0125687462905958,-0.0611286052375133,0.0152659689497205,0.00774994526899916
11,11,0.0460318382500822,0.0182845183684696,0.948665215178282,0.00815715136792935,0.00120392751915444,-0.0125735088000708,-0.0381889865981881,-0.00755608889016926,0.0307960381145502
12,12,0.0461963381919498,0.0182796685871566,0.948650716705258,0.0103705492282289,0.00211491767199841,-0.0126466626315238,-0.0857147213005438,0.00524525348896333,0.0104143712187433
13,13,0.0463608379410069,0.0182799091039423,0.948640547718461,0.0131075369158395,0.00275013511063063,-0.0125624213739383,-0.107474282319561,0.0257668609080602,-0.00732793282848198
14,14,0.046533995567957,0.0182946269141772,0.9486369701149,0.0160451669842777,0.00279938369760828,-0.0120902106059324,-0.117713894553848,0.076524096505928,-0.0106885413078579
15,15,0.0467244698346294,0.0183332116781733,0.948642243063733,0.0177152385210762,0.00267649349567678,-0.0111366089817694,-0.172129062993485,0.161452325069308,0.0932673012519726
16,16,0.046946712058292,0.0184029719478186,0.948658379212733,0.0179759088290558,0.00230406865212377,-0.00927836751631717,-0.177729687033216,0.197999762555583,0.137500028535559
17,17,0.0471949545486182,0.0184976551697857,0.948683860711071,0.0165576982729365,0.00261671123193297,-0.00669704555434118,-0.161292711353173,0.159290705024859,0.270539394260997
18,18,0.047447526733728,0.0186063105161717,0.948715652615179,0.0142934779331134,0.00481061181645979,-0.00392274430311214,-0.129875321029254,0.0283364817548371,0.267083534981406
19,19,0.0476827556350536,0.0187179849852918,0.948750723123483,0.0115879625784553,0.00738524626982063,-0.00163660091962889,-0.0623040950882745,-0.00391999884032702,0.242023041707126
20,20,0.0478789653424899,0.0188217231117763,0.94878604410617,0.00980239337869567,0.010126983441259,-0.000384783960040327,-0.135611044591884,0.0612281235911712,0.210267161185818
21,21,0.0480209390974333,0.0189018245706727,0.948821417647931,0.00881178974827405,0.0122666576938173,-0.00049409218227153,-0.185483088545002,0.114381962570422,0.111651775957744
22,22,0.048123125974102,0.0189656009974523,0.94885887162835,0.00840332652740043,0.0141221718001666,-0.0014779734522453,-0.210305808517849,0.25072462945122,0.00721592088441335
23,23,0.0482083466607213,0.0190366062576792,0.948898712670689,0.0083365805313499,0.0165683839182268,-0.00297249495252857,-0.156623378459817,0.194660603256483,-0.0982925752137256
24,24,0.0482994235381724,0.0191383849790893,0.948941233987969,0.00856794968157992,0.0187089517993711,-0.00456259537964047,-0.134276786660703,0.197570696432541,-0.136835902492593
25,25,0.0484191810624888,0.0192944728752928,0.948986715023844,0.00884217735538649,0.0210449517644769,-0.00583989794684273,-0.128115901026051,0.187379280705735,-0.187275407696543
26,26,0.048578572983918,0.019510487961074,0.949036650629458,0.00921543875812884,0.0239059353483101,-0.00689408881900848,-0.0525651116204068,0.206207801181166,-0.182430667889065
27,27,0.0487623855757498,0.0197707270199385,0.949090827218101,0.0102375781816706,0.0274040260805467,-0.00799526970857891,-0.12326549583133,0.239237727562162,-0.16973937584506
28,28,0.0489541915116137,0.020066736487511,0.949146965325479,0.0111767775323946,0.0312966101436764,-0.00902714679426391,-0.157771962328166,0.229275585664531,-0.116565745248065
29,29,0.0491375611163615,0.0203900619769693,0.949202805074453,0.0112831952673969,0.0352915465769372,-0.00992193693383685,-0.0739233612649585,0.219830405334411,-0.0197373149504329
30,30,0.0492960621680162,0.0207322496680245,0.949256107025264,0.0106983013624656,0.038172916361229,-0.010578231619193,-0.0154706805375151,0.239268728634759,0.0420095434657388
31,31,0.0494295167961839,0.0211020804622131,0.949307354465523,0.00963782373648116,0.0400687407680551,-0.0107690753911116,-0.013267461883789,0.228604179858407,0.0369848415273176
32,32,0.0495488760480204,0.0215051818384095,0.949358077031394,0.00838113408643714,0.0412783821633099,-0.0106252869668246,0.0204160961916129,0.250814862567373,0.0216073098307893
33,33,0.0496543996853353,0.0219283751180304,0.949407608069828,0.00697775138106683,0.0418714916963976,-0.0103357724962393,0.0105385129148692,0.214163087687398,-0.018609574954081
34,34,0.0497463478474918,0.0223584839853948,0.949455261672705,0.00610979208342594,0.0423210293770145,-0.0100747879915995,-0.0118201481900697,0.150173218891953,-0.0536271025926233
35,35,0.0498249811157183,0.0227823322419981,0.94950033226101,0.00592102043438265,0.042191150403572,-0.0100229018600048,-0.0595351972889985,0.146124665010434,-0.119338203640876
36,36,0.0498892958130429,0.0231970997533861,0.949542618056846,0.00599106664457028,0.0418868269414244,-0.010340818348772,-0.0893930154376702,0.0429104920374679,-0.15079534560774
37,37,0.0499391124736385,0.0236115739253248,0.949582588891659,0.0059982705747467,0.0407580761735333,-0.0109259739916765,-0.0736312623717067,-8.09942651283744e-06,-0.138299713908881
38,38,0.0499759328996498,0.0240299872227037,0.949620533756939,0.00553054295049057,0.0398455143195584,-0.0115667452404712,-0.0584197337014912,-0.0262318877230123,-0.0717409685013905
39,39,0.0500012649148218,0.0244565704197228,0.949656739516159,0.00531933741771386,0.0402331508942312,-0.0120962283336462,-0.0569724265670082,-0.0503327462409942,-0.0648935411179288
40,40,0.050016622067152,0.0248955535430347,0.949691490445353,0.00440178773703692,0.0416230464147983,-0.0123076668506736,0.0416743350210624,0.0155684670792571,-0.0164082091327591
41,41,0.050022309097252,0.0253412628446893,0.949725626744461,0.00332926297652305,0.043163616135464,-0.0120482118819909,0.0529749052584021,0.0626444233261544,-0.00326975363558354
42,42,0.0500173285678401,0.0257908795382456,0.949758954899492,0.00231623667590002,0.0456990679275132,-0.0114910973982331,0.0353205771038199,0.144904183701633,-0.0292329796890188
43,43,0.0500012381728754,0.0262529129734628,0.949790213575639,0.000916297939944661,0.0487156267825153,-0.0108590247601295,0.100827361126088,0.185681827067981,-0.0195401265183352
44,44,0.0499735894604,0.02673586797088,0.949818148101514,-0.000961528323993969,0.0520433156083773,-0.0103344069896954,0.115992369182688,0.123047305859868,0.0232523572831001
45,45,0.0499339272163374,0.0272482457260455,0.949841509191059,-0.00247085743772349,0.0539815371647325,-0.0100927024912724,0.0948705509741227,0.194825940812611,-0.0479229862362433
46,46,0.0498842561367155,0.0278031970822603,0.949860779306911,-0.00405106426163314,0.0553406509840887,-0.0101679607716305,0.0775229679370614,0.16255424742866,-0.049092249271701
47,47,0.0498248682276669,0.0283950506301877,0.949876806153255,-0.00569401775041336,0.0565128365181077,-0.0104760274977744,0.0932138702203491,0.141124676977139,-0.0645976219019158
48,48,0.0497527305900867,0.0290040767937383,0.949888890374511,-0.00718018436044817,0.0576221922717767,-0.0108382814420276,0.0501118868518356,0.123268133883745,-0.0946833862683832
49,49,0.0496648092476687,0.0296105498157808,0.949896329320346,-0.00831083622851459,0.0582942034423675,-0.0112013495263641,0.0514970073508175,0.0377939758508147,-0.127515974979861
50,50,0.0495580697863093,0.0301947459642526,0.949898417026765,-0.0093663444654737,0.0584314415859068,-0.0114534670835572,0.054681877526457,0.0416962621250394,-0.103543878028067
51,51,0.0494244076536003,0.0307586359027266,0.949894011723693,-0.0101832057225172,0.0574887306486445,-0.0116687649364653,0.0792946708637451,-0.00992139406932636,-0.142633275565838
52,52,0.0492658205694818,0.0313153772259773,0.949883588475985,-0.0109644705979777,0.0555535652172709,-0.0119213493088552,0.0864639313713717,-0.0341332235014143,-0.134172242782711
53,53,0.0490944370152073,0.0318620269398711,0.949868860797033,-0.0120435144304698,0.0530650135021058,-0.0121053539593489,0.157300440534904,-0.0548270250520417,-0.0925872885811605
54,54,0.0489223992752905,0.032395642279274,0.949851538153083,-0.0127959810900241,0.050565300339541,-0.0120837232262345,0.136355792235985,-0.0559093429634151,-0.0496306428878265
55,55,0.0487618637082529,0.0329132805207413,0.949833326881986,-0.013382496854751,0.04867815315332,-0.0117420154342882,0.180379952103365,-0.0575554001412983,-0.0192203538059401
56,56,0.0486060873437529,0.0334152402513974,0.949812875376606,-0.0132934975532084,0.0471788386119014,-0.0109723264466694,0.11233646631938,-0.100733586902238,0.0106540283457149
57,57,0.0484469733365089,0.033903490510832,0.949789038027161,-0.0128069253847605,0.0464780780758875,-0.00982549983942006,0.0769691301535112,-0.129243826000828,0.0347988255739516
58,58,0.0482946583716123,0.0343775921179975,0.949763829653212,-0.0123957840924326,0.0461298801931148,-0.00851791696666086,0.0631797391281058,-0.121226692557115,0.0754890798904342
59,59,0.0481592805779533,0.0348371036218077,0.949739267090642,-0.0116436355473032,0.0455602007922042,-0.00724948279947557,0.0249154727230315,-0.157849140817958,0.0774955632718069
60,60,0.0480509792297204,0.0352815816852987,0.94971736930474,-0.0107588071168014,0.0444862751226099,-0.00623951969587817,0.0215120622081745,-0.140565269283826,0.0734862118447598
61,61,0.047979152178538,0.0357152199982822,0.949699047034265,-0.00999939015856264,0.0428965628851097,-0.00544839523670177,-0.00316735309336118,-0.139523093506714,0.060688178111509
62,62,0.0479370493070062,0.0361383150003233,0.949682952843745,-0.00907074053074906,0.0406319396596303,-0.00475974026098344,0.0195084206915855,-0.111361300360796,0.060362299876804
63,63,0.0479105879810047,0.0365445749236559,0.949667720240835,-0.00793018285885579,0.0384245220593918,-0.00417843454151594,-0.0175418410143746,-0.140690473104071,0.0439862405384838
64,64,0.0478856854089336,0.0369277058357273,0.949651982675407,-0.0069374059028806,0.0360497490169787,-0.00377183507460979,6.42070065586092e-05,-0.160610668009395,0.00755611600313368
65,65,0.0478482590982161,0.0372814118151073,0.949634373156051,-0.00616881894897117,0.0337688824442784,-0.00355437741519263,-0.0422926059200262,-0.184131771346447,0.00754649821204172
66,66,0.0477941291350335,0.0376030331921764,0.949614488475715,-0.00567155105358801,0.0311545377007033,-0.00367135700857011,-0.0203823380721952,-0.188278460116554,-0.0344096482692307
67,67,0.0477326930040733,0.0378967631809428,0.949593239418238,-0.00566519504784266,0.0283941118757033,-0.00409496272114366,-0.0175511369902397,-0.211850975365701,-0.0396092877508287
68,68,0.047670232902044,0.0381665848563726,0.949571228646561,-0.00565605716017318,0.0253478697660754,-0.00460780578070564,-0.0100416972598962,-0.163490928364165,-0.0519675710628888
69,69,0.0476130281787132,0.038416481893949,0.949549057860804,-0.00582853196550283,0.0226948373771581,-0.0050262605344263,-0.0198764721669794,-0.177167698018759,-0.0269961018720736
70,70,0.0475673551511266,0.0386504384614576,0.949527328118492,-0.00586692022529386,0.020832513035307,-0.0051539528694099,0.00435456082832711,-0.15051756334181,-0.0315130284849016
71,71,0.0475338138635913,0.0388659949644196,0.949506078889354,-0.0056834862174336,0.0191422179611488,-0.00493048245811104,0.0209021677548346,-0.143805780014317,0.0295292060686507
72,72,0.0475082219275166,0.0390604935779918,0.949484906374756,-0.00531627940063989,0.0177611909923679,-0.00443636214838293,-0.00677564272077059,-0.151332621238939,0.0439607143135969
73,73,0.0474896802426549,0.0392376216784948,0.949463747656054,-0.00476072572620344,0.0164511802594793,-0.00384524550287984,-0.0254300140585693,-0.153066877808233,0.0378626041223635
74,74,0.0474772900932916,0.0394010668332413,0.949442540967231,-0.00413023891511753,0.015507880324502,-0.00332699538808813,-0.0391836430487415,-0.186728340244444,0.0598754920038154
75,75,0.0474701533015591,0.0395545169999784,0.949421225482206,-0.0035018270198978,0.0142553068166097,-0.00300201196748538,-0.0081656692896687,-0.173532358457257,0.0152875386127495
76,76,0.0474678444127073,0.0396954593635615,0.949400060175359,-0.00296600175087541,0.0130772170833003,-0.00293057535089276,-0.0343214700875959,-0.164265598605297,0.0212263725095684
77,77,0.047470965702004,0.0398214351473236,0.949379086435223,-0.00226426817218267,0.0117697928623139,-0.00299134368044058,-0.0367396137932525,-0.15150564857182,-0.00928277684310502
78,78,0.0474801603090762,0.0399362140319443,0.949357917943979,-0.00142321625839153,0.0107117204448585,-0.00313130465680595,-0.0328409622424538,-0.0865040590070299,-0.0145699424143814
79,79,0.0474960702073716,0.0400435656311712,0.949336168388616,-0.000883825746539438,0.00949957094721385,-0.00329970795828962,-0.0160353619777279,-0.0415225415417993,-0.0293483014508873
80,80,0.0475193361432024,0.0401472591821676,0.949313451339446,-4.10010932803178e-05,0.00827451282450299,-0.00346601884888122,-0.00505663992888932,0.0360540876263426,-0.0141643886566633
81,81,0.047551419742693,0.0402488272396796,0.949288562978509,0.000525013666009653,0.00749404311109971,-0.00373200720482164,0.0477693808907021,0.0174575157035546,-0.0256324638302682
82,82,0.0475918944472345,0.0403457570307593,0.949261762345807,0.00168916860433444,0.00716064059555732,-0.00409323721773804,-0.0055576721606667,0.0338075403973145,-0.0256394408045626
83,83,0.0476385674416358,0.0404357495142319,0.949234855858621,0.00284195995831659,0.0070260848332234,-0.00440209162199761,0.0218148824492751,-0.018362115935314,-0.0531814262409133
84,84,0.0476892457847441,0.0405165060235991,0.9492096481984,0.00392696702823371,0.00686622415784044,-0.00457671681571252,0.00133135292499631,-0.0140494423283833,-0.0322035847456333
85,85,0.0477417363123555,0.0405857283670384,0.949187942740493,0.00419354838786244,0.00633200143565648,-0.00446078739912573,0.00166407372722238,-0.0271922538075495,0.0272517238818061
86,86,0.0477952778330886,0.0406394592456531,0.949169962283044,0.00453154843490453,0.0056633686685681,-0.00386614030058959,-0.072129278983363,-0.0296141034298036,0.0325849689480359
87,87,0.0478513318587007,0.0406792314504073,0.949154502555313,0.00361803106826375,0.00478606735855261,-0.00290791118549684,-0.0315347581050619,-0.0952803044976947,0.0839544377928892
88,88,0.0479110387691569,0.0407109824904768,0.949141226425417,0.00276829540608358,0.00409671331402636,-0.00178020889680287,-0.0699282994869891,-0.122359682674108,0.0801978677877092
89,89,0.0479755389384609,0.0407406500934943,0.949129797032675,0.00183080688795986,0.00367397734129659,-0.000781622110137477,-0.0225210177808512,-0.12709694964058,0.119714109283723
90,90,0.048045972853801,0.0407741721080446,0.949119877385459,0.00169258258016285,0.00304493828845664,-7.81744101245264e-05,-0.0614980254458924,-0.0998119141278723,0.0822492088051008
91,91,0.0481199578472883,0.0408124668424526,0.949112542132132,0.0020028115344357,0.00253102646127771,0.000241471163707589,-0.0472898899765199,-0.0897071786467274,0.0871412053028395
92,92,0.0481967324427187,0.0408515766315973,0.949108015748911,0.00249846529914234,0.00198573587603984,0.000359957410348467,-0.101018419355059,-0.0561045031713427,-0.00101864667171128
93,93,0.0482798693687912,0.0408901257470419,0.949104685421646,0.00248999916135639,0.00157141394988135,0.000281091020672763,0.0184235935577951,-0.0798874159044238,-0.0130312702590263
94,94,0.0483729418220717,0.0409267389329965,0.949100937706031,0.00319453433878655,0.00131362793568033,0.000105770593735984,0.0115960657111394,-0.0464370419327493,-0.0394243139931847
95,95,0.0484795234691251,0.0409600410514103,0.949095158465334,0.00368451674306183,0.00101275709257403,-0.000101772733462929,0.00625238855047891,-0.065495786429534,-0.0148172778259538
96,96,0.048592959168282,0.0409770454755713,0.949086737160089,0.00538186477789991,0.000596550706027557,-0.000578416224950409,-0.000939042452413618,-0.0670690141921517,-0.0689630273580054
97,97,0.0487108645422971,0.040978666442782,0.949076747940852,0.00798501393577475,-0.000143189634129662,-0.00136871570795872,-0.013369626065103,-0.0620847606846292,-0.0367577586651063
98,98,0.0488432226160779,0.040984383301464,0.949066102140379,0.011416647867056,-0.00118730754774483,-0.00205027935897881,-0.0708794566476324,-0.0390851117921207,-0.0282981121837354
99,99,0.0490000201930875,0.0410136804713262,0.949055709648482,0.0144422991177741,-0.00195980101716068,-0.00225795121014839,-0.129094571280618,-0.0654246883569941,-0.0211868836505847
100,100,0.0491912473688663,0.0410860503358693,0.949046483991273,0.0162702462383713,-0.00203088396426558,-0.00160393888562146,-0.0873951652687889,-0.0531150075659622,0.0402632774339088
101,101,0.0494230623134055,0.0412029159230601,0.949035598495932,0.0171080001051459,-0.0013981182548565,0.000278755964602941,-0.0560866612868619,0.121517377329617,0.158426228340856
102,102,0.0496888146709487,0.0413513013820349,0.949022464766961,0.0181452777809929,0.000632890524096677,0.00318425668997024,-0.114003783182316,0.205672518021925,0.22205186155663
103,103,0.0499792781913799,0.041529112916564,0.949011358084426,0.0191285058056672,0.00327779027589899,0.00654022172673492,-0.276091773029739,0.293746649690802,0.292059344812393
104,104,0.0502852172366951,0.0417342611397653,0.94900654361069,0.0200687881193619,0.00854131967559721,0.00962966251234799,-0.374031676260845,0.214050052976963,0.35167557629177
105,105,0.0505973885803104,0.0419646604369586,0.949012286498163,0.0204384410629552,0.0141722848425837,0.0119251555755409,-0.376168098081048,0.300539868732304,0.486397340872608
106,106,0.0509219211411404,0.0422035445164011,0.949039374121501,0.0200975256669118,0.0187523669978308,0.0139589472231284,-0.377433510476675,0.475080483419986,0.543627332767695
107,107,0.0512649686653152,0.0424523659000843,0.94908501576199,0.0193008017703917,0.0243923601989969,0.0160796353499184,-0.460497534006158,0.383419702396607,0.466806302376722
108,108,0.0516173233602273,0.0427363462004387,0.949133159062672,0.0187951482245656,0.0322804683498271,0.0174965089531743,-0.514302219750372,0.188741660344833,0.21106087446193
109,109,0.0519697796658505,0.0430806635041525,0.949167807846685,0.0175415483778511,0.0387599585408627,0.0176835785636945,-0.43667643161602,0.238298396563742,0.024822348649419
110,110,0.0523131379448624,0.0435104476522562,0.949173056626052,0.0158119513955019,0.0445076777261858,0.0159312175778712,-0.396140641763288,0.304069428776958,-0.155329181812614
111,111,0.0526639753905728,0.0440384230505123,0.949149300686529,0.0142241163901234,0.0513997054148932,0.0114212810010071,-0.418995875314891,0.292529092612287,-0.397008248571151
112,112,0.0530284525011902,0.044647835538293,0.949107588054988,0.0129181899057608,0.059830275895612,0.00449415300328121,-0.374523047273209,0.311644263648127,-0.553388551102549
113,113,0.0533817347983888,0.045319503761932,0.949048096521785,0.0121953995403696,0.0680719291432923,-0.00358731429304285,-0.342653911518232,0.389818179954766,-0.630434659925788
114,114,0.0536989636839349,0.04603415475638,0.948971004479164,0.0105761357268797,0.0757691952656967,-0.0115150729440969,-0.30048811727187,0.442704366977854,-0.650341813860165
115,115,0.0539552561629093,0.0467724195086552,0.948876496082809,0.00834891071811177,0.0821263546512012,-0.0179815881065526,-0.282588085642825,0.436795988980446,-0.604617836867601
116,116,0.0541287723401375,0.047556693919095,0.948755493062629,0.00589493132194596,0.0871865525593978,-0.0233233975701677,-0.285322148309586,0.461868212201719,-0.554851875193256
117,117,0.0542361005711123,0.048399593031698,0.948608636499438,0.00341492335365469,0.0913975880254596,-0.0283898744850621,-0.301198358604331,0.414660193027443,-0.562056137735899
118,118,0.0543099493805722,0.0492670516437114,0.948450743306991,0.000911094455330431,0.0941584715995867,-0.0326253423078778,-0.198206210238177,0.383049378705899,-0.435743944862359
119,119,0.0543829702946216,0.0501250885924886,0.94829668455633,-0.000477294344185389,0.0950400491940131,-0.0354047312692843,-0.277119333740894,0.317183432906447,-0.369415153604328
120,120,0.0544877488801246,0.0509398353610991,0.948161393797695,-0.000913607571770619,0.0938541099813385,-0.0362279168862189,-0.295991517563512,0.214913784516812,-0.127801944774226
121,121,0.0545954439675923,0.0517223539145958,0.948020908520841,-0.000763938625786356,0.0897851411269895,-0.0345946120100204,-0.30426630592909,0.143615610946486,0.0825505681276163
122,122,0.0546841271767556,0.0524953309920354,0.947866810470932,-8.77765146989017e-05,0.0820397197205073,-0.0308612317418649,-0.321225987419205,0.150569362427823,0.223700648271251
123,123,0.0547967000100433,0.0532422609273297,0.947737039510788,0.00211243546832797,0.073449894695829,-0.0258396046209072,-0.375254520739977,0.0579683705572327,0.373095841375829
124,124,0.0549760608320605,0.0539463652569577,0.947668990998826,0.0059835275435966,0.0643663654055844,-0.0202583901896377,-0.327451583241739,0.0530844298551058,0.38836255629673
125,125,0.055265104092771,0.0545905838550475,0.947699485001987,0.0109629600554085,0.0556993115639745,-0.0150023868225753,-0.126312855477852,0.0587233286602818,0.489964527933314
126,126,0.0557388829908747,0.0551661142837822,0.947857690519964,0.0190171369297,0.0469228251460403,-0.0101249539268604,-0.0734616147499947,0.0717929351499134,0.459958166019228
127,127,0.0563683182448805,0.0556838042053072,0.948119779299759,0.030405842604613,0.0391177761028475,-0.00518100931183486,0.0810885948260779,0.0114336987168353,0.482650644133899
128,128,0.0570402750251445,0.0561559956905013,0.948442228225408,0.0426757223934705,0.0322977714789504,-5.27524628224769e-05,0.150409676592648,-0.0451467748324676,0.330811424384561
129,129,0.0576418962690124,0.0565951874038424,0.948780898210528,0.0520117193961122,0.0253544693495006,0.00543403453722196,0.357577659559071,-0.128520119865988,0.366002726538032
130,130,0.0580606296789872,0.0570140184515378,0.949091025135695,0.0559056004205701,0.0188225990524284,0.0117153629133889,0.288505213909129,-0.185817924900553,0.244489951008454
131,131,0.0582809778742015,0.0573840244215267,0.94935352199758,0.0545723833852464,0.0103176205113957,0.0196048231867685,0.407052742219763,-0.298155814090421,0.281072606232696
132,132,0.0583780398160833,0.0576963864207708,0.949597646478591,0.0485110756842942,0.000136027450641866,0.0289132595936998,0.653250770694346,-0.272184589891607,0.426820006041527
133,133,0.0583754901384962,0.0579937632380138,0.949850600216346,0.0414461289996656,-0.00676042124926879,0.039168618736059,0.429055681468963,-0.680786989678647,0.478080598108132
134,134,0.0582971668131152,0.0583194114646405,0.950139415056264,0.0298713995642598,-0.0125044994995496,0.048477669287165,0.535164017898226,-0.881083546380886,0.522661305753689
135,135,0.0581670640672996,0.0587171593255646,0.950490951779676,0.0164138496706923,-0.0165785390555703,0.0558707201148294,0.597910536133605,-0.906207626181568,0.58655091752067
136,136,0.057938422669267,0.0592256504057184,0.950927318554161,0.00356535582746802,-0.0187425074977689,0.0611536731298486,0.828343349680801,-1.34947733890661,0.162877901770951
137,137,0.0575956738819468,0.0598169811666615,0.951429945398115,-0.0158792402362474,-0.017011154773769,0.0667671972866987,0.80573107228995,-1.46090963086181,0.0620553322834096
138,138,0.0572096936937071,0.0604351915194936,0.951964270570246,-0.0386411372711467,-0.0111015445456902,0.07157889045217,0.647411105398826,-1.32600069459441,0.172193768155632
139,139,0.0568513544050861,0.061023752888458,0.952495362064126,-0.0587189908823587,-0.00413976515934328,0.0748021653854135,0.145457022510343,-0.971493059597388,0.011993669536957
140,140,0.0565914849920675,0.0615256057183466,0.952987975845693,-0.0732667738896853,0.00314202000242268,0.0752339934467025,-0.129892445245147,-0.609292526711651,-0.0413510497660994
141,141,0.0564390046857318,0.0619629732364191,0.953458549965514,-0.0761319071177206,0.00661518689607781,0.0708337809295976,-0.0544086492463734,-0.641341732595548,-0.535593164023632
142,142,0.0563468965540455,0.0623738435998585,0.953929370503672,-0.0747578808308812,0.00993062648741189,0.0628593360587582,0.25491231097005,-0.489159166624806,-0.591539149807113
143,143,0.0563019655440203,0.0627244030610959,0.954373885745537,-0.0699225977135796,0.011892099402109,0.052981244736253,0.23532988032736,-0.310704057374889,-0.675722212963742
144,144,0.0562910102544878,0.0629807152379689,0.954765648921299,-0.0628499185662724,0.0123032561005568,0.0426559101308606,0.213053582066615,-0.306752450927033,-0.759132759066082
145,145,0.0563008658589255,0.0631087452089407,0.955078308871617,-0.0560900091046714,0.010235574104133,0.0332716501905413,0.289215372452997,-0.271442848717832,-0.78752075410743
146,146,0.0563308797369775,0.0631051120890889,0.955313901616979,-0.0496964914301135,0.00516991904486663,0.0247178755369547,0.37152207676809,-0.288516720278456,-0.750405073765148
147,147,0.0563898050642229,0.0629922571950695,0.955489625413527,-0.0416679929316931,-0.00178546391547098,0.0159958655431076,0.399565500654838,-0.278896893944647,-0.74452993338841
148,148,0.0564786313852738,0.0627748936412364,0.955601964818902,-0.0322420235332887,-0.00995009044520325,0.00706657871761253,0.339552876695114,-0.281734918526989,-0.797507446899241
149,149,0.0565983499726304,0.0624577860103304,0.95564746719924,-0.0230238680722786,-0.0187189181604051,-0.00200408938565453,0.395229534079659,-0.217376544262697,-0.797898875977154
150,150,0.0567499449460636,0.0620457055279534,0.955622789392382,-0.0138580999595758,-0.0273162018030147,-0.0109126051977605,0.405622325161245,-0.175433535012386,-0.822890386208826
151,151,0.0569471782058708,0.0615496080625947,0.955529063486965,-0.00611368444981035,-0.0361898062592666,-0.0192602933070925,0.584183579091076,-0.067420007941698,-0.893409900208512
152,152,0.0571893053445613,0.0609661472167277,0.955368994642075,0.00317674610217314,-0.0440507459691644,-0.0276746456845568,0.594801404687901,-0.17428224203467,-1.04287982707433
153,153,0.0574555281231018,0.0602786291391757,0.955141777497264,0.0130576050392377,-0.051899124170602,-0.0362456703184302,0.690553947453965,-0.223328724895109,-1.06212243346423
154,154,0.0577250229505329,0.0594704227357103,0.954846657819078,0.023385495300954,-0.0597521643891862,-0.0449877140538854,0.651813312014632,-0.376832522504581,-1.07622541173587
155,155,0.0579769379249282,0.0585250110473403,0.95448290734902,0.0341286197084317,-0.0691467304425668,-0.0537191200088395,0.604525116771975,-0.40992804918892,-0.94942134948458
156,156,0.0582046376587191,0.0574305663651177,0.954036840671926,0.039962124913339,-0.0810718734661355,-0.0609957386836687,0.456261947912605,-0.394393607529667,-0.768300681483657
157,157,0.0584218083738595,0.0561980875609265,0.953510501148503,0.0441360147343482,-0.0935285609751462,-0.0683694783292625,0.444787146500696,-0.490532486433254,-0.70581827252941
158,158,0.0586379978219804,0.0548455041812204,0.952926536233981,0.0469447839384866,-0.105976966883184,-0.0749578017119569,0.456572381523245,-0.562770957349062,-0.653287534319847
159,159,0.0588626892617137,0.0533908670963009,0.952307199682995,0.0485722213079356,-0.118708599718156,-0.0798704982785539,0.396143636268634,-0.648601002885921,-0.645811063010217
160,160,0.0591053270840399,0.0518523347530963,0.951674355067606,0.0487247293813595,-0.130800263659137,-0.0825022164423473,0.435810045608588,-0.628643011598971,-0.624118372382677
161,161,0.0593869825144813,0.0501963946043873,0.951026976308588,0.0483956304673947,-0.143146252699698,-0.0823758218514886,0.47426461536699,-0.574701618180116,-0.467939178980636
162,162,0.0597009523198397,0.04841154138275,0.950352090272657,0.0464888108786309,-0.155349028745877,-0.0803176748636539,0.360726910429723,-0.156272917485717,0.195653379931069
163,163,0.0600151532081553,0.046548745953009,0.949653064232478,0.0420269232812953,-0.165977232518306,-0.0735655268953784,0.157775269675143,-0.560713099650285,0.239680819666244
164,164,0.0602976492241455,0.0446586126912428,0.948932717842127,0.0351121468475326,-0.172648988807575,-0.0683353721132018,-0.00828443340049032,-0.564025885890229,0.214181023375709
165,165,0.0605166041434092,0.0427913044625759,0.948193386940396,0.0270651320939037,-0.177032512344978,-0.0632691894782427,-0.412503146452966,-0.714028066652098,0.83985937695595
166,166,0.0606788631643492,0.0408824873958246,0.947398304834699,0.020491744274797,-0.177819124327616,-0.0578631347125493,-0.341235350218037,-0.278323836263208,0.598400618546823
167,167,0.0608055560834345,0.0388978473818405,0.946547956012867,0.0126008691423931,-0.171880457853314,-0.0523151471039396,-0.297239539900668,-0.238183095617043,0.861741491150651
168,168,0.0608864712341045,0.0369325010526541,0.945699248773862,0.00451923530864548,-0.166393316681898,-0.046142127241027,-0.351296202178988,-0.177060777689781,0.669120037322384
169,169,0.0609115655039678,0.0350821500031671,0.94490761608244,-0.00406888720016214,-0.158999649452183,-0.0399747259237471,-0.520478572145343,-0.0728456685058003,0.460502447634061
170,170,0.0608708659323513,0.0334431127853937,0.944227179876631,-0.0143359933203935,-0.14688924724519,-0.0347925505727023,-0.592037908142228,-0.0657938386025173,0.158007533461278
171,171,0.0607765661383395,0.0320295225547014,0.943631320594226,-0.0274758552099129,-0.131502766951967,-0.0319793407009359,-0.959634789091624,-0.1957080070105,0.24091056612443
172,172,0.0606350902206879,0.030777302128975,0.943084043883114,-0.0431310111886946,-0.111480263306713,-0.0309553921148893,-1.22689737359989,-0.538607259736218,0.320016809164785
173,173,0.0604277187006709,0.0296657232116342,0.942624785549916,-0.0586265429463531,-0.094096822253612,-0.0299158055927891,-1.48133576200019,-0.427073495078244,0.365076415702124
174,174,0.0601357217032673,0.0286741996714708,0.942293169034281,-0.0691484723900889,-0.0840026478649213,-0.0270471647171758,-1.59037100753042,-0.140351145407838,0.576183503214677
175,175,0.0597402974001872,0.0277826543839407,0.942129042837684,-0.0710486255296223,-0.0804093712091318,-0.0203689441527633,-1.44497127261443,-0.33225275538205,0.739775302213307
176,176,0.0591873151274529,0.0271310497043854,0.942165346262218,-0.0685715393384454,-0.0837860536563054,-0.00912963231924468,-0.999096981797426,-0.266922019082383,1.17903145173128
177,177,0.0584873604976514,0.0267345786230059,0.942380077753604,-0.0673118902320708,-0.0934058587760404,0.00498619779633816,-0.879945752056305,-0.164540850870829,1.42920208206655
178,178,0.0577190112119733,0.0263861888196842,0.942728660598456,-0.0675190104785215,-0.105657817638177,0.0197211032840993,-0.785413508721501,-0.087005621266504,1.3875770826729
179,179,0.0569619291348541,0.0258777882032478,0.943162620185087,-0.0708695537993148,-0.117281187604,0.0335941786317788,-0.433050434169289,-0.293294936771094,1.34762546680035
180,180,0.0562973073261983,0.0249999924051827,0.943629375151429,-0.0757248837880765,-0.121708146736218,0.0457061527432935,-0.0627204966207813,-0.657624153723243,0.967292118539814
181,181,0.0557658833856465,0.0236314146867718,0.944138649509766,-0.0794814066878486,-0.124029758259975,0.0558882418211032,0.31117095993379,-0.592174021145856,0.578415491324803
182,182,0.0553140174109549,0.0219123349991048,0.944721732436739,-0.0793698251974415,-0.132004875266643,0.0649954626614125,0.356492659900382,0.0357223392275703,0.627555699914504
183,183,0.0548827583288928,0.0200241156211586,0.945356652219263,-0.0702831746595777,-0.129792257006014,0.0753904941384016,0.66525175507087,0.209245878719576,0.174714590113521
184,184,0.0544131742335583,0.0181471530919296,0.94602240156971,-0.0613310257397115,-0.128574550700948,0.0863436703106149,0.673936942382418,1.00108482163559,0.508399565522818
185,185,0.0538461736038779,0.0164609100851062,0.946698862411199,-0.0600153311829902,-0.115357361920849,0.0963037771109093,0.989251069905944,1.15074241129919,0.199518966410366
186,186,0.053139067748979,0.014959484316515,0.9473913631877,-0.0669377509852845,-0.109489251523511,0.104872667265565,0.759736154086893,1.41849291656875,0.243769171968788
187,187,0.0523315471980912,0.0135208567584572,0.948113668402682,-0.0838926285979298,-0.104280727013379,0.110079332896438,0.62786996275289,1.39145442660061,0.496047566432201
188,188,0.051488159077465,0.012150158971914,0.948858023293535,-0.10613260367845,-0.0828791657597338,0.113440638106864,0.740927509990487,1.0592929644761,0.421499654669451
189,189,0.0506740228107326,0.0108534678443183,0.949615193961483,-0.127206340145995,-0.066394883267101,0.114533233881621,0.356567526785185,1.32094733174412,0.155905052108893
190,190,0.0499549014421352,0.0096378326286699,0.950374559146288,-0.139051813403794,-0.0624030182057235,0.114434264565728,-0.0141168874905228,1.69457622642974,-0.112517864180823
191,191,0.0493011458282012,0.00850304979271132,0.951167740208599,-0.141879354471926,-0.0651764102536492,0.112148923692405,0.115179895559842,1.66399525912341,-0.182284657442007
192,192,0.0486702249900946,0.00744417475113159,0.951999429364141,-0.13881386041455,-0.0681021204130059,0.108131701572397,0.351667459427289,1.47175928197833,-0.220192352924717
193,193,0.0481088730755057,0.00646226821052755,0.952817640088482,-0.131133989507364,-0.0750455816572244,0.101893955227531,0.283087083906408,1.34373138867443,-0.289908103277889
194,194,0.047663629458933,0.00555895404926362,0.953570215918481,-0.119677982016908,-0.0798283397351632,0.09447681319055,0.319816220980578,0.900279941381739,-0.46074929899807
195,195,0.0473808691740363,0.00473628968948019,0.954204856968563,-0.106700581810898,-0.0801077197232339,0.0856929692182515,0.255357496190074,0.381555163812689,-0.784450056200449
196,196,0.0472876489536131,0.00399689007398457,0.954721764042089,-0.0923801347711409,-0.0757642148749651,0.073241108776699,0.302070030018987,0.0148744174540184,-0.955587056092234
197,197,0.0473535977562891,0.00334029716876416,0.955154138327273,-0.0727166667146794,-0.06886557791885,0.0574987556136074,0.209725044976202,-0.202600756886362,-1.23563971062351
198,198,0.0475389341216089,0.00276389972304523,0.95549925181127,-0.0513348833377242,-0.0635096333388969,0.0401334037620229,0.231517262701811,-0.0418193631171277,-1.41552966204437
199,199,0.0478038941572722,0.00226486273160989,0.955754518365809,-0.0306285612136577,-0.0584410593431696,0.0232913672415211,0.128722358971582,0.0972184758787507,-1.4741546243977
200,200,0.04810864756864,0.00184026427634804,0.955917512101181,-0.014641402955728,-0.0529354944116245,0.00890975213790596,0.210869174029107,0.33237713453347,-1.27338255635936
201,201,0.0484620349616157,0.00146514931241794,0.955980112494365,-0.00306919047807873,-0.0466968383262731,-0.00236438059708357,0.226972484990639,0.549243273248718,-1.0393623873622
202,202,0.0488906640596942,0.00114162275697401,0.955943851524941,0.00592450738100212,-0.0396315885724522,-0.0118776310155275,0.301351732420647,0.605949284980271,-0.825778958562443
203,203,0.0493811726025365,0.000907335055881404,0.95582107681324,0.0140069504771416,-0.0302110987055652,-0.019664962641903,0.271500309414889,0.57746912229512,-0.699313431756149
204,204,0.0499201636368926,0.000799838563281553,0.955624243213453,0.0218940763320225,-0.0190086563908922,-0.0265538807574819,0.187777912680423,0.546421815131744,-0.680162513797126
205,205,0.0504942759056243,0.000856523965863055,0.95536582725941,0.0303443967019781,-0.00665591874144425,-0.0332272397931371,0.167118931028445,0.501560623443828,-0.630795311262791
206,206,0.0511153096397203,0.00110753968189874,0.955035967668713,0.0396934087048452,0.00696162990059552,-0.0397007122853004,0.140787914721006,0.434434757906996,-0.690186466073926
207,207,0.051791579575167,0.00152790479525975,0.954627552092132,0.0486600578273554,0.021241137710475,-0.045842126588588,0.160685333513566,0.435871933198112,-0.638802645582191
208,208,0.0525045509439684,0.00207211225920633,0.954157161156878,0.0563774823982576,0.0357392902896629,-0.0517121040706069,0.169384252285632,0.40935523158995,-0.594722545422993
209,209,0.0532356986251116,0.00269457633149734,0.953641338778579,0.0629313877742804,0.0487960758008161,-0.0574652167523405,0.159733584712302,0.378422702586979,-0.529972530170647
210,210,0.0539665242270468,0.00334964810918324,0.953096575021776,0.069215869048313,0.0600986060431599,-0.0625423167454034,0.0937843717966707,0.325640859463318,-0.563726315626588
211,211,0.0547068239986566,0.00403838493735645,0.952511161094311,0.0744167284386477,0.0675558624964085,-0.0672681401966689,0.0925899278607045,0.257115203828673,-0.514815905571059
212,212,0.0554681125870699,0.00479065293689197,0.951876208712784,0.0778019524393691,0.0711276781671183,-0.0721368874695123,0.17861618777707,0.260887609947712,-0.480770016669487
213,213,0.0562345835867683,0.00560422109003034,0.951212089388476,0.080274104487184,0.0730555078394798,-0.0764736887216922,0.222569918809722,0.224952906440653,-0.453752327918521
214,214,0.0569905834882575,0.00647720470643269,0.950538657452774,0.0818752585802953,0.0757916434849109,-0.0796691691477208,0.199611243625577,0.241760014039016,-0.357003282747818
215,215,0.0577206210306916,0.00740809101840204,0.949875209913096,0.0842876031219918,0.0811202566242475,-0.0809366068292627,0.101643281583386,0.305714652656004,-0.345519618046169
216,216,0.0584260750108142,0.00837454203450943,0.949215364991599,0.0856512798486335,0.0888423230829584,-0.0810383059301066,0.00144950017260266,0.317927402509771,-0.244617703958976
217,217,0.059116653517509,0.00937791365231117,0.948547836489391,0.0848332912871346,0.0974956938755466,-0.0802001866946584,-0.00424910484562616,0.493122849740312,0.127365012223261
218,218,0.0597896159788655,0.010452475823236,0.947883896909862,0.0823090370485476,0.105539191008402,-0.0770700398654631,-0.176324307924844,0.550779472073857,0.233481423307299
219,219,0.060442446661045,0.0116324284789763,0.947234394150048,0.0797081886813048,0.113224027372505,-0.0719930280060164,-0.356049322123771,0.661927491471928,0.306957532225523
220,220,0.0610728385118543,0.0129519199744559,0.946609729421662,0.0771407103446621,0.122188520261191,-0.0661077635939537,-0.323880204194672,0.712371598792497,0.357618409086663
221,221,0.0616723499268456,0.0144177408653597,0.945957799006679,0.0756702690494351,0.133876685189119,-0.0599228869701206,-0.231981072779489,0.867472579254892,0.568523810658714
222,222,0.0622420747856782,0.0160080797235932,0.945272996898029,0.0772843459808751,0.148906573448863,-0.0527853609965639,-0.292496748835527,0.80100495279704,0.714059861098114
223,223,0.0627945475426515,0.017713226293406,0.944634415669643,0.0798486068349257,0.161813582770513,-0.0447915326906163,-0.256649318734496,0.859763908264074,0.525393843178276
224,224,0.063342943680829,0.0195221765049353,0.944120160166648,0.0783554917464931,0.172050001494073,-0.0355404359662089,-0.157560761137813,0.64273340254347,0.782551499249108
225,225,0.0639011820255647,0.0214226439871075,0.943807551862232,0.0748915136680478,0.176240456064661,-0.023466538097833,-0.0906967905899657,0.455877323280067,1.00986686493939
226,226,0.0644837040781673,0.0235877355637759,0.943750235037303,0.0695267977582717,0.173452734519685,-0.00465958206049968,-0.267017193325603,0.396181402204258,1.34925592147895
227,227,0.0650827946159948,0.0260219296557611,0.94389865044064,0.063659448556635,0.169735127204856,0.020863558398383,-0.512123515120674,0.37389020697518,1.44161934659219
228,228,0.0656795296479186,0.0284613884895915,0.944171699900339,0.0523341957262783,0.164791409771819,0.046686138149006,-0.714139146414315,0.314844497137762,1.97355131178665
229,229,0.0662542502973032,0.0306455808818611,0.944483923140719,0.0393359104223099,0.152046164809657,0.0683849299122253,-0.36099069185417,0.665838164347939,2.79585058613778
230,230,0.0667865487925301,0.0323166023369463,0.944746794898418,0.036337021993214,0.148520859661107,0.0801107552125369,-1.03902407816196,-0.671768493327767,2.72030085029265
231,231,0.0672796221803389,0.0332999220184416,0.944948739129616,0.0375690159163627,0.148204175587718,0.0795335783032471,-1.77329459534936,-1.45576069089775,1.04995587733083
232,232,0.0677474669110363,0.0337698167559295,0.945146838096335,0.041382062886778,0.125000096108689,0.0706740352016963,-1.71716093340472,-0.589759289707303,-0.484910995502515
233,233,0.0681853469675221,0.0339915542427235,0.945355977792925,0.0431678164610605,0.0949000813261066,0.0565008587044243,-1.25650252967146,0.162822160331479,-1.27968009164108
234,234,0.0685881821275898,0.0342295869451875,0.945590330266328,0.0397530333929814,0.0736813122455053,0.0392454276149826,-0.543963473248368,0.466726585777399,-1.40978372003694
235,235,0.068950418721986,0.0347480090693966,0.945861955082507,0.0362746896560144,0.0605599123085977,0.0226963563195306,-0.62751036151872,1.06602842397827,-1.61701954843144
236,236,0.0692532265191259,0.0355177561645547,0.946175235776384,0.039311728012252,0.0676790894705144,0.00374612126773684,-0.71750503321164,0.934260278576037,-1.58613278413603
237,237,0.0694985944071359,0.036359994742426,0.946525547165536,0.0480258788232943,0.0922698263462835,-0.0200112893305973,-0.880681070244026,1.09540097083657,-1.76010958355211
238,238,0.0697120576019233,0.0373150758716739,0.946908376098257,0.0549486193510256,0.117037872895615,-0.0430780243129436,-0.889934004086398,1.82076073282951,-1.69665528704951
239,239,0.0699200735025892,0.038424979509642,0.947316898383228,0.0579028693900299,0.131546727047947,-0.0591776211329867,-0.752260102918425,1.91360010468674,-1.19321587759992
240,240,0.0701503094437789,0.0397333907562246,0.947741987814312,0.0560283049672633,0.13429199870834,-0.0632753814325673,-0.0655165302201992,0.87288444477934,-0.906368474372525
241,241,0.0704470682904981,0.0413228720937122,0.948178726950639,0.0386675998151916,0.12420263246433,-0.0519057442723014,0.950756832112966,-0.00511477585340844,-0.050080865216311
242,242,0.0707915925243225,0.0431654022730373,0.948632522960298,0.0195442284791344,0.119945446777945,-0.0264707993260747,1.58979337964582,-0.839732180598706,0.674804849692931
243,243,0.0711182591365997,0.0451403465793759,0.949107479168725,0.000686904888124872,0.106882136005386,0.00578623521448996,1.62335005921748,-1.20186253576216,1.51940482184526
244,244,0.0713619856231665,0.0471273042158813,0.949606410504368,-0.0174897249968009,0.0852757177526733,0.0371040262298591,2.5860232812717,-1.34572451291608,2.49867748750747
245,245,0.0714582185704192,0.0490059051536972,0.950130822289851,-0.0303722363691201,0.0750752894563976,0.0585243850562195,2.77528579238537,-2.20554365539606,2.46062789961093
246,246,0.0713320774310714,0.0508845761542804,0.950697525121131,-0.0391605962041337,0.0635370043967727,0.070730619945715,2.15656207650533,-2.01723867205012,2.06295066615985
247,247,0.0710274769218222,0.0528451396569725,0.951303100894423,-0.0411536718128683,0.0481648357365606,0.0801678517607058,0.242721674594032,-1.98967268972298,1.3288875195572
248,248,0.0706588431172102,0.054726726058354,0.951917240449221,-0.0390992037304695,0.0462895457598202,0.085658562901333,-1.11361652459746,-2.30740813422799,0.200011041660226
249,249,0.0703410407884936,0.056367850575111,0.95250889033559,-0.0354414811294628,0.0567243375033237,0.0874365416922986,-1.20120501424098,-2.97376572839545,-0.235072987109716
250,250,0.0701891120566329,0.0576065783296116,0.95304648110438,-0.029934260189229,0.0557791131113983,0.0872659733155739,-1.47030199497193,-2.01224418253441,-0.98330805151369
251,251,0.0702594797581469,0.0583547456957682,0.953548389849557,-0.0330542223316797,0.0586522931867068,0.0778224967887408,-0.800579265913322,-1.65932190437005,-0.995318754682606
252,252,0.0704762765154346,0.0587201016978777,0.954032912465049,-0.0370310341827512,0.0628766136416231,0.0624466873295999,-0.439212420679552,-1.76489489787177,-1.12175839032916
253,253,0.0707557900102763,0.0588342869867286,0.954468641724963,-0.0394134972959405,0.0529268211216475,0.0465797508137722,-0.262265549517676,-0.824230424632321,-1.64183159321316
254,254,0.0710143522323458,0.0588287766983024,0.954824562213735,-0.0441665417636865,0.0424109333077456,0.0297819546613903,0.468437613143293,-0.367065067565129,-1.46966243908017
255,255,0.0711686413455936,0.0588348678807688,0.955069863825116,-0.0457179093216674,0.03214222147151,0.0163095242203588,0.676681124867965,-0.121016236000058,-1.26724534150409
256,256,0.0711761262616242,0.0588532721147983,0.955186169148363,-0.040593850862343,0.0226143369616825,0.00653615391832374,0.377280306194239,-0.0101398860735743,-1.19216536024256
257,257,0.0710922085412102,0.0587961525005543,0.95519384467999,-0.0313340584577441,0.0141624651613851,-0.00201942089589814,0.258406603690253,0.170450323347558,-0.894404120243199
258,258,0.0709808894035081,0.0586618572536695,0.955120440293737,-0.0197372476583678,0.00557763229041564,-0.00936745897180544,0.106061897712281,0.309956054247664,-0.514890385311056
259,259,0.0709062538941134,0.0584486660468433,0.954993630645292,-0.00810521433172221,-0.00407313660046291,-0.0157935313192383,0.185476128590493,0.323598227925236,-0.310478615892313
260,260,0.0709324588464284,0.0581548258030248,0.95484114193285,0.00158725984754452,-0.0148804900681979,-0.021400868827099,0.380506884387176,0.144290331419869,-0.220593856072763
261,261,0.0710790140586642,0.0577915999992483,0.954665737546598,0.00644957988762798,-0.0250601961016845,-0.0249465966748379,0.559669321860002,0.144791862411956,-0.232409205851804
262,262,0.0713031097887945,0.057360073493477,0.954449934925376,0.011080173452268,-0.0356532320954688,-0.0272970687467974,0.713894695783043,-0.171131050548494,-0.453911537073197
263,263,0.0715754392758117,0.0568433094148801,0.954190986179702,0.015235980412213,-0.046717670474618,-0.029522007563928,0.736947661441724,-0.394383018535557,-0.541186670944575
264,264,0.0718666844125516,0.0562243704440085,0.953885904126671,0.019843897030251,-0.0592100486241995,-0.0322604064943,0.563348388474203,-0.433780791765969,-0.607855591108669
265,265,0.072147543645249,0.0554862720346725,0.953531381067408,0.0246390657313824,-0.0721385714861784,-0.0364948240518087,0.405684880284227,-0.528338486555449,-0.523355909313315
266,266,0.0724414080044318,0.0546245901856402,0.953124202306518,0.0259118053939964,-0.0807136503994215,-0.0418089610908999,0.183377124799195,-0.128890642326791,-0.493514766595848
267,267,0.0727676941695226,0.053650884571005,0.952667388108984,0.02654823388403,-0.0877405624701913,-0.0484268404684542,0.0698201416542833,-0.13843724989262,-0.558790502784842
268,268,0.0730911159738891,0.0525720134902236,0.952166539855759,0.0266152334684609,-0.0944688385953024,-0.0552602789905838,0.0110233691711834,-0.195665493979602,-0.633601685215985
269,269,0.0733763390832254,0.0513946978828646,0.95162700664984,0.0270620734323143,-0.101378763509969,-0.0611706487041483,-0.0763427632145015,-0.29589967354352,-0.605543583925475
270,270,0.0735880045196842,0.0501254892400862,0.9510539263547,0.0277292594534596,-0.109415819340518,-0.0651227489351618,-0.101492336208505,-0.437693107182588,-0.581883956372425
271,271,0.0737151251064195,0.0487495391430941,0.950431650611377,0.0283507529424652,-0.120016263712761,-0.0671055311028561,-0.0708044783658582,-0.562826268053278,-0.390531402452729
272,272,0.0737811374769601,0.0472621695653351,0.949757097686976,0.0287172833138971,-0.132181976793322,-0.0679966236452578,-0.179203415693606,-0.652860385820757,-0.285220777807731
273,273,0.0738023957289315,0.0456853201400155,0.949054350619636,0.0272108107941715,-0.144230018366635,-0.0676085157715867,-0.130395300384802,-0.429396416029145,0.36397410500461
274,274,0.0737953107650322,0.0440412877076874,0.948347766691246,0.0233615492029528,-0.153459195473703,-0.0630895298028097,-0.294958502533015,-0.886475810417772,0.249389661212731
275,275,0.0737763281494204,0.0423526977476003,0.947662076319504,0.0167696184323525,-0.158952198291805,-0.0595333586020692,-0.259015174348817,-0.823447642150519,0.455006321414484
276,276,0.0737560256925507,0.0405491927320235,0.946956037428344,0.00646232130423131,-0.16213078790838,-0.0523460639315016,-0.350922633685515,-0.668973943278658,1.09442661852435
277,277,0.073723562922928,0.038616074685986,0.946215499934112,-0.00255368954008293,-0.162466149970831,-0.0427307256594989,-0.376126616375943,-0.329510124194827,1.04619976204531
278,278,0.0736633446521382,0.0366596736866871,0.945505478869852,-0.0109437370629507,-0.162154746739759,-0.0319054625461299,-0.538186433186371,-0.221410486864271,1.06163021182473
279,279,0.0735598108028726,0.0347864063524319,0.944890009564327,-0.0172807619040077,-0.161975399308337,-0.0210150110815442,-0.743242970900215,-0.0177119721572226,0.91905508453822
280,280,0.0733973353665318,0.0331028655013229,0.944432488174588,-0.0231271924702952,-0.160336970707015,-0.0113977035530395,-0.812615562485646,0.226805918798757,0.672794686383218
281,281,0.0731947092708687,0.0315525085236616,0.944149322199967,-0.0333491981063832,-0.151248776816775,-0.00269351902762476,-0.986564081570293,0.113020770596515,0.906626654363326
282,282,0.0729622853041492,0.0300657564459908,0.944001159206242,-0.0460991387422722,-0.130526219002416,0.00666256221367826,-1.12922216318646,-0.438521106835465,1.37646191525376
283,283,0.0726713542645743,0.0287285076077799,0.94396690966967,-0.056639204673334,-0.104539186774009,0.0153187856831652,-1.22347746151997,-0.430367141290396,1.50931660284684
284,284,0.0722928216116225,0.0276248659932739,0.944024314896262,-0.0596063327510163,-0.087216521063535,0.0229813470617297,-1.68841900809356,-0.0708776891939685,0.923829393124451
285,285,0.0717972263758091,0.0268374674253967,0.944150038417354,-0.0585859114125495,-0.0777032162572698,0.0288556988789052,-1.54009935446802,-0.545161841823395,0.480547489798403
286,286,0.0711076371274778,0.0265696165923184,0.944361361649088,-0.0524778129772514,-0.0761737989110246,0.0302940830607393,-1.33851142747674,-0.860101027350447,0.0844160404555471
287,287,0.0702413287493785,0.0267639807617819,0.944679234033426,-0.0483187320856528,-0.0811530752379483,0.0276060917527036,-0.943442039072687,-0.78139381357349,-0.0648669226832777
288,288,0.0693103466972266,0.0271128880751013,0.945082892142597,-0.0455734487611899,-0.0863855763236649,0.0232137013206366,-0.822404612092535,-1.02235333248246,0.0217200358719415
289,289,0.0684275276054129,0.0273101190248596,0.945547230600496,-0.044613963387936,-0.0842979092326871,0.0199534871919618,-0.920666159910925,-1.16426514283182,-0.0306169759858662
290,290,0.0677068420557167,0.02705051264969,0.946042351295914,-0.0478098750471467,-0.0816898265124669,0.0200290537357191,-0.665179281361334,-0.97480441601372,0.104962515726553
291,291,0.0672360135240102,0.0262182959640137,0.946561285958158,-0.0489837813807712,-0.0827783561463282,0.0251499772438552,-0.779175677863012,-0.578464580927642,-0.340646378016951
292,292,0.0669380333494932,0.0250198049846885,0.94712110521298,-0.0495368083901439,-0.0849084548378937,0.0336842778788209,0.261921380643603,-0.335735291735034,-0.25356563823405
293,293,0.0666818099887447,0.0236322175903649,0.947724417887821,-0.048149532509449,-0.0911914268815674,0.0447350299463582,1.06951171414571,0.80358346198284,0.229670755164908
294,294,0.0663376479448937,0.0222311161905701,0.948373393977221,-0.0458881463198734,-0.0939006694058818,0.0575842750846736,1.34669602060985,1.7064109560926,0.668423864994999
295,295,0.0657770126168482,0.0209907083253198,0.949069801461743,-0.0528225028126797,-0.0864120395110317,0.0692062910895591,1.73419454782151,2.06247045452239,0.9191510108321
296,296,0.0649121808381701,0.0198993912566299,0.949834229891878,-0.0691566412585804,-0.0770217620251774,0.0806054900098628,2.21338871032813,2.59724853161954,1.49541809616685
297,297,0.0638305208655692,0.0188397250504577,0.950662365383995,-0.0880854177067832,-0.0567756535087485,0.0930920698727083,1.40002865322914,2.25461380558754,1.41540398604126
298,298,0.0626665975089161,0.0178260528425244,0.951518227109601,-0.103372138811719,-0.0295863239553633,0.106296513299438,-0.0104446253751469,1.75150607917746,0.257703594336112
299,299,0.0615552272573823,0.0168726243734461,0.952365684638624,-0.12283820699835,-0.0323914321024996,0.111285231346771,-0.135355844344503,2.74325109725665,0.300262686655881
300,300,0.0606316932630877,0.0159936491450617,0.953168539568213,-0.125490794260058,-0.00664506080597564,0.117938804082742,-0.176393058507433,0.954397838821762,-0.0456973820756621
301,301,0.0598858442977978,0.0151521002604138,0.95395273653696,-0.122194879782817,0.0215676929365795,0.116483834004011,0.272089173989474,0.404695736967139,-1.47946682399794
302,302,0.059229003583289,0.0143368775188842,0.954740212069069,-0.118843316130342,0.00906635607404677,0.104435261552125,0.0879292451014981,1.41071155786769,-0.89746500815708
303,303,0.0586789715728629,0.0136019974177658,0.955488529611177,-0.111127525871668,-0.00987780578065839,0.0892080807062148,0.437267620810535,1.40895800183307,-0.939478873663267
304,304,0.0582533177714653,0.0130026676425804,0.95615484079142,-0.102697333297895,-0.0262040856091867,0.0729060723664991,0.882664563057836,0.982313039775273,-0.824501458953666
305,305,0.0579693367265022,0.0125950497651985,0.956696011545389,-0.0930432375363725,-0.0288774391345112,0.0584624996743605,0.892877808417528,0.282088249658803,-1.08760044535948
306,306,0.0578472344238248,0.0124180198633333,0.957116516016835,-0.081273402966291,-0.0250895198133813,0.0445606364599125,0.747875371941316,0.0194552780856502,-1.32211912483263
307,307,0.0578759677194639,0.0124354117155218,0.957443648277195,-0.0666936453860865,-0.0205987593923859,0.0290200846606886,0.528371130255567,-0.0475748281255276,-1.45605355325236
308,308,0.0580258262171892,0.0125911441548995,0.957668662681916,-0.0514706005361383,-0.0145080198072206,0.0127359537549387,0.634899393286618,0.0574354074673447,-1.442683624332
309,309,0.0582671310833462,0.0128289445542567,0.957782935849516,-0.0359714272859762,-0.00729764802062262,-0.0029660376693993,0.780003345930819,0.126154189627727,-1.33826201602377
310,310,0.0585701958207609,0.0130924193855408,0.957777937456865,-0.0215433145179668,0.00165911875935121,-0.0170081070416518,0.82846511586408,0.162239941321703,-1.22633023845483
311,311,0.0589379069900824,0.013351087772884,0.957639533528674,-0.00812601605708785,0.0121094828024386,-0.0290639939477782,0.801187755453631,0.329891915808274,-1.19129383104363
312,312,0.0593897487963572,0.0136428314402751,0.957374155907751,0.00383085897455541,0.0230370692958726,-0.0402563133341227,0.769787399544483,0.46403601151637,-1.05218656984134
313,313,0.0599207572368681,0.0140136348325904,0.957004350530115,0.016030044441626,0.034301789147979,-0.0503770368565062,0.674071449072954,0.574232014288858,-1.01607429415017
314,314,0.0605258721048587,0.0145093215445139,0.956552744774811,0.0277633926967568,0.0452761983186455,-0.0595961561211255,0.60169665052157,0.537360779936129,-0.957567275664361
315,315,0.0611999985230241,0.0151756100232833,0.956042006729391,0.0391508201463921,0.0557341056234652,-0.0678530877101363,0.539209499150022,0.488401718871314,-0.854362386559583
316,316,0.0619642631631514,0.0160415367583729,0.955459580967514,0.0511210515978293,0.0657302290913317,-0.0754479605258308,0.507676473814068,0.390738491984522,-0.78133667090689
317,317,0.0628206676808137,0.0170765117834383,0.954793252549771,0.0642064494445548,0.0747960160821786,-0.0822230379486455,0.469140540138197,0.318352442661284,-0.695663764115318
318,318,0.0637355644081403,0.0182367152847269,0.95406591945705,0.0773574630172849,0.0844614838603851,-0.0879711521106538,0.416043923116213,0.276889019935883,-0.610403149560467
319,319,0.0646755880616573,0.019478153015795,0.95329987841598,0.088916860078005,0.0952754556899171,-0.092657266049732,0.471358041443108,0.212865925688883,-0.533413063227902
320,320,0.0656076896608315,0.0207566057859201,0.952516749898387,0.0987222649993999,0.105426764694731,-0.0963761479604878,0.431433019420197,0.29300052132927,-0.543532940410055
321,321,0.0665738684571515,0.0220723353648138,0.95168583699384,0.106080107811386,0.116550882848237,-0.0998867344007616,0.437750724345585,0.372825919403309,-0.258474897943001
322,322,0.0675948467862553,0.0234538605170131,0.950796073024721,0.11151693652388,0.128741573123478,-0.101442966570978,0.158460344253543,0.491287038595108,-0.0431232425575517
323,323,0.0686063434722743,0.0248995367500607,0.949897200447044,0.111616228016522,0.140615261190664,-0.099780776420614,-0.0763867351109895,0.535608987546171,0.070402250985533
324,324,0.069544802649962,0.0264083332156812,0.949037631826288,0.106463618053899,0.147313794094473,-0.095645526345434,-0.304889855809891,0.839955290148975,-0.000163384028647628
325,325,0.0703473529488923,0.0279799173786458,0.948264362918407,0.0971029015372056,0.14841750902842,-0.0886200587439465,-0.423433676508648,1.17828346987148,0.101605912270215
326,326,0.0709695320557971,0.0296330251034506,0.947555458605497,0.0859685274041408,0.150689626215631,-0.0765346926259455,-0.559148791703013,1.25680321391391,0.79829783803717
327,327,0.0714529820633037,0.0313690064424903,0.946881470630717,0.0751014691618916,0.158149445424748,-0.0596326811966814,-0.645689817680522,1.03078130427384,0.76006180876562
328,328,0.0718651135821119,0.0331611583262516,0.946275394844456,0.0613674961482138,0.166922228507914,-0.0408528976129243,-0.73475503297068,0.610963243200403,1.17274964440699
329,329,0.0722744084815291,0.0349815830485913,0.945767847470475,0.0458957169021015,0.168192047729147,-0.022013297523778,-0.621491705020747,0.509410577667372,1.99080737476378
330,330,0.0727502812186936,0.0368012599515393,0.94538730400611,0.0363324393631577,0.163976534048177,-0.00490439786308188,-0.846948134048039,-0.110323243808901,2.41833836192071
331,331,0.0733291533066883,0.038714405675624,0.945140119718969,0.0354544448118584,0.1578113303166,0.0118048466482286,-0.783281261396192,-0.368304968135423,2.15040710478054
332,332,0.0739662068494279,0.040737919361277,0.945005010259402,0.0396905426876015,0.149368789113308,0.029637607204667,-0.940002472534736,-0.107960323826666,1.65748110998795
333,333,0.0746092503785626,0.0427279650032733,0.944967123889611,0.0462136420911886,0.140249132469036,0.046365025343535,-0.882306049441824,-0.294022130098212,1.18645171742973
334,334,0.0752059917452756,0.0445429537381981,0.945011027244499,0.0535575338440731,0.134396391434805,0.0592470156763046,-1.05320164819834,-0.406748115652704,1.02453730359845
335,335,0.0757042242365971,0.0460428016909486,0.945121350497564,0.0612161467946723,0.126786415076469,0.0666340798662852,-1.43176265309329,0.209590733568403,1.0577704061702
336,336,0.076036610864455,0.0471102981832644,0.945321154960658,0.0676498759549319,0.122655910103702,0.0671658835402277,-1.70987745930077,-0.0790780482989642,0.717485003890167
337,337,0.0762385211747677,0.0478403844477461,0.94562208701995,0.0696119445255136,0.119572680072147,0.062591949007799,-2.04695426562941,-0.0779514662000111,0.0906924222377203
338,338,0.0764114319877743,0.0484107270547521,0.945992222506485,0.0651013242301716,0.10969373787107,0.0548210138544678,-1.76222470669525,0.703666892951789,-0.391146022859079
339,339,0.0766562891674353,0.048998541123396,0.9463979057633,0.0568593271090995,0.0959805073968784,0.0447852499844334,-0.921273331322788,1.20206129180189,-0.611907849638982
340,340,0.0770737181278956,0.0497811127043641,0.94680280506312,0.0502261057794278,0.0869214433904989,0.033275410936253,-0.546795622960279,1.1119246348741,-0.9887536270373
341,341,0.0778323254177123,0.0507410752463908,0.947207255538043,0.05471168868317,0.0906342930991336,0.0170991947134197,-0.349377199325324,0.80108586373552,-1.49254135853697
342,342,0.078863360013902,0.0517581279525136,0.947635980119092,0.0649057804839155,0.103203893109231,-0.0044941586851619,-0.0445507683902045,0.451917080524076,-1.86029027055699
343,343,0.0799118306589535,0.0528563072245998,0.948087376669538,0.0768421879466667,0.113657694422772,-0.0253609991601154,-0.284583542846183,0.332719454436903,-2.0253214420908
344,344,0.080723662580478,0.0540610182740386,0.948559914309364,0.084303976949741,0.117139801011618,-0.0389097941580372,0.0704648907566585,0.265705800110739,-1.75069421902401
345,345,0.0810457071753079,0.0553989840360137,0.949051874582953,0.0800061200882582,0.112411610083349,-0.0383382734221199,1.45750070630351,0.406582912564344,-0.69034254504896
346,346,0.0806780520589259,0.0569322673903037,0.949562073882878,0.0619545809318885,0.103099183168986,-0.0229118521916187,2.31365707657184,-0.16948881851145,-0.498344460582938
347,347,0.0797893241657623,0.0586445799923429,0.950092484691897,0.0225496809649969,0.0886672831480416,0.00645168622783946,2.30910593453358,-1.26553999815493,-0.314876027505685
348,348,0.0786802924330414,0.0604460867682367,0.950643752831702,-0.0244902485483512,0.0725398382712334,0.0414892983312626,1.9327479267423,-2.31933275388106,0.406669215899784
349,349,0.077652550611745,0.0622467810106563,0.951214476188458,-0.0651637613398941,0.0592922082425667,0.0735219339496976,1.92405772425788,-2.9016017312017,1.30880808317563
350,350,0.0770085157907909,0.0639563809841269,0.951801707583395,-0.0890712026024057,0.0447516207906524,0.0946365233119277,1.11937854012159,-2.77427092647404,2.44907470501669
351,351,0.0768255437081343,0.0657083471726927,0.952421574251018,-0.0843180069424777,0.0337267538541866,0.1002619747062,-0.752049717233308,-2.4343603011024,0.662889749092483
352,352,0.0769036563271436,0.0675642709686483,0.953072069429232,-0.0659684947768151,0.0418590037323465,0.0956622697604411,-1.44052195138257,-2.5071876647311,-0.187705236160926
353,353,0.0771297145210914,0.0693249412303364,0.953721784051437,-0.0429445910710558,0.0546916849586634,0.0847128968910378,-1.25969572332725,-1.96904916894873,-0.89354986882044
354,354,0.0773903505817417,0.070790046576266,0.954339015644852,-0.0208713965993163,0.0664694130961142,0.0711147955834577,-0.803919483099901,-1.4302884770006,-0.946132658051953
355,355,0.0775719053765608,0.071758481167255,0.954892043495762,-0.00625997296902061,0.0722518679007798,0.0585478822606899,-0.626003808326508,-0.988444132415871,-1.18266694625403
356,356,0.0776923417057318,0.0720846302484603,0.955406180489215,-0.00423277432415461,0.0707905277306905,0.0461009965700981,0.107971506674682,-0.711154534578567,-1.90141962637283
357,357,0.0778274232519051,0.071901686632945,0.955900599156354,-0.00983118530343586,0.0634267212872874,0.031968684803372,0.496633855574319,-0.63209614989132,-2.18703820233577
358,358,0.0779500303802199,0.0714266810177865,0.95633506504028,-0.018204511972857,0.0506880481923534,0.0176436987092368,0.416600300840151,-0.387662356867763,-2.27226814445415
359,359,0.0780333968172635,0.0708765875295281,0.956669457239363,-0.0264314661218785,0.0344485592897966,0.00483388577801435,0.344989433944199,-0.246949513546839,-1.88030647137055
360,360,0.0780512469777626,0.0704679990454596,0.956863416468399,-0.0293805361048025,0.0165290609930405,-0.00474309208588156,0.337955031397935,-0.0576542398798714,-1.00763534107118
361,361,0.0779475356379572,0.0702457834902823,0.956882920445033,-0.0261826874298951,0.000383378726005195,-0.0110512980755145,0.18102866025674,-0.1556956673092,-0.831316818213191
362,362,0.0777396459339282,0.0700647147995396,0.95675551471251,-0.0203968878722598,-0.0130218384080605,-0.0155147232622651,0.122373745951218,-0.171883660411905,-0.557791553692023
363,363,0.0775118060829377,0.0698561271520201,0.95653303340874,-0.0133098455695983,-0.0242015025260618,-0.0187058707354601,0.203951248145562,-0.160477168055807,-0.301374765810734
364,364,0.0773483395670622,0.069551955039582,0.956267253764232,-0.00681500175235938,-0.0334956282000214,-0.0216838721234957,0.409740503327106,-0.297608549785786,-0.0333226823984457
365,365,0.077333716788789,0.0690849428306123,0.956009775162142,-0.0012019284658711,-0.041979863568793,-0.0250950150254938,0.425071905217068,-0.326025936724052,0.041579013678157
366,366,0.0775261976809676,0.0684519799435647,0.955768719566634,0.00206867956382355,-0.049109093987666,-0.0272392086926506,0.238965107728948,-0.0866448408154584,-0.11110206582361
367,367,0.0778692687793847,0.0676987755770161,0.955511262374332,0.00882228064850892,-0.058113156878518,-0.0292275237780744,0.165325569390469,-0.177296575884708,-0.474846180493272
368,368,0.0782754192382714,0.0668316790314389,0.955226948165084,0.0166648025336425,-0.0676261740192654,-0.0317885518196744,0.17072551568045,-0.261470836745388,-0.641975141679488
369,369,0.078657214160439,0.0658565140120283,0.954904567572242,0.0243804004994271,-0.078548005391952,-0.0348848383857533,0.145481464163663,-0.3512417011908,-0.675673277676744
370,370,0.0789273036230637,0.064778488777423,0.954532078038155,0.0302375944086958,-0.0907709369267951,-0.0386431504055184,0.101949158911278,-0.416088911702678,-0.539730720672181
371,371,0.0790892805637087,0.0635763447083749,0.95410035686125,0.0292888315124986,-0.101284333931569,-0.0421391290316701,-0.105223759834312,-0.212307907677069,-0.463550029564274
372,372,0.0792013978873997,0.0622464532531551,0.953617204014874,0.0253494330867963,-0.111880302238494,-0.0464639033806547,-0.201724067825286,-0.201712328493633,-0.453486626514569
373,373,0.0792583543371951,0.0608200760953057,0.953095454845669,0.0193474518453092,-0.121419724479758,-0.0510235330581795,-0.21068124620734,-0.318324237291116,-0.404299187038806
374,374,0.0792548454397388,0.0593285451472155,0.952548102120345,0.0123817368521133,-0.130882621027341,-0.0551283663408978,-0.11010189540254,-0.344395096550579,-0.390922080244444
375,375,0.0791855579332982,0.0578032618262358,0.951988337522304,0.00601019213594539,-0.140915643535628,-0.0579387481606044,0.0190781661439802,-0.407706672123994,-0.271601811981255
376,376,0.0790482372994637,0.0562522054288509,0.951417223930257,0.000610148451288891,-0.151016196850782,-0.0598123927861158,-0.00972644464065542,-0.289596488419814,-0.0638380354787682
377,377,0.0788463860493593,0.0546544620671308,0.950826204358235,-0.00434275547634694,-0.160169724155395,-0.059753530314652,-0.0345241279906399,-0.628565070536606,0.0829792046785626
378,378,0.07858338599736,0.0529982274459943,0.95021435663982,-0.00806368909817326,-0.168000939668418,-0.0598453814499567,-0.0507422247399973,-0.819358471815915,-0.281750939349927
379,379,0.0782627457254271,0.0512717348239877,0.949580945649385,-0.0130425028280836,-0.17644001706858,-0.059330685423015,0.0419458346070303,-0.786222985964741,-0.0132103905831673
380,380,0.0778881148719518,0.049463201241104,0.948925563843903,-0.0197911998997766,-0.182457804383994,-0.056841646548401,0.0361850800104677,-0.646970771643237,0.0469156504929744
381,381,0.07746168545854,0.0474996343956686,0.948197027798732,-0.0295771903344351,-0.187362074589521,-0.0524405481798044,-0.0969636736646387,-0.476562931756438,0.179947524018785
382,382,0.076981441799757,0.0453887896299757,0.9473976221591,-0.0414483709367431,-0.193038804463011,-0.0460994867846098,-0.220604679119723,-0.389149818305083,0.404772294295035
383,383,0.0764446767374409,0.0432400234587952,0.946606842812873,-0.0522286818157098,-0.19860254393693,-0.0384453014748009,-0.401419230295804,-0.380302052879501,0.464825169492522
384,384,0.0758484036711,0.0411629401093747,0.94590325121725,-0.0634981939060534,-0.202054641974403,-0.0307689311107307,-0.295870572683138,-0.349891048649399,0.614068973732549
385,385,0.0751892790145541,0.0392675185518757,0.945364740626122,-0.0747560990165189,-0.196729871666407,-0.0235769853165941,-0.667491239104897,-0.324234154780212,1.33492635842315
386,386,0.0744516607284528,0.0375250179120574,0.945023033744462,-0.0848486187258231,-0.176051331488154,-0.0156825311798995,-0.6025307023416,-0.878346035765864,2.13199996325869
387,387,0.0736372095681952,0.0358630909411089,0.944828420629377,-0.0871947474576117,-0.14787659650465,-0.00565420101624934,-0.989760020519906,-0.599885501555829,2.00543182207804
388,388,0.0727680793589239,0.0343259357683783,0.944736145663502,-0.0807316044202717,-0.126955195280374,0.00506411917154754,-1.32990068360147,0.261415355140018,0.952069158629314
389,389,0.0718661926714943,0.0329570154237051,0.944700888991993,-0.0693757933454926,-0.104140961496889,0.0139417319881415,-1.16426962432528,-0.188363944094059,0.0430515720321861
390,390,0.0709532561096561,0.0317993250815865,0.944676744620856,-0.0613609606253196,-0.0902611371376983,0.0188186016052286,-0.793101991750702,-0.564495008856525,-0.186436762748298
391,391,0.0699373036306935,0.0309813353794525,0.944642985913104,-0.0564367231932796,-0.0938672259011999,0.016552224399089,-0.857770017383112,-0.132448932423931,-0.644309476966662
392,392,0.0688013336519773,0.0304747557448582,0.944635689786365,-0.0577526477059059,-0.103131231949648,0.00893862492309576,-1.08863075628279,-0.374727198048365,-0.607845777450371
393,393,0.0676799126414504,0.0300875889408832,0.944691264385859,-0.0648098925236002,-0.110554395353641,-0.00029873480700056,-0.879520823182519,-0.862948295824268,-0.250942681377151
394,394,0.0667086359444916,0.0296278253491348,0.944841722681869,-0.0732523707290499,-0.116045730077979,-0.00746245046779268,-0.725044432862588,-1.04623306114598,-0.0278758248683118
395,395,0.0660245425510357,0.028903128245069,0.945114457382403,-0.0787237431059613,-0.121051663412603,-0.008961559521315,-0.582531208555791,-0.942115145049873,0.228567708702225
396,396,0.0657799182264832,0.0278510136530599,0.945538437385753,-0.0739063721051694,-0.122195521599388,-0.00201204953182389,-0.72158486990526,-0.435905303689562,0.0935132001826597
397,397,0.0658830368710522,0.0266016298775095,0.946092017043521,-0.06309445726105,-0.121262637451598,0.0110277433614227,0.0131855456425953,0.110821507586871,0.122783615538601
398,398,0.0661069591129107,0.0252498641008231,0.946723727790945,-0.0536551169958629,-0.121104050977038,0.026591257150978,0.973963959097992,1.00273314598596,0.575269393669408
399,399,0.0662256690595994,0.0238889708239522,0.947382018277969,-0.0479397900716517,-0.119794848852095,0.042623238308322,1.73266661858775,1.76436553611639,1.05921776804854
400,400,0.0660138705654216,0.0226107714355037,0.948015192795619,-0.0492952856650256,-0.111552919441088,0.0562356123648267,2.18715677361376,1.97207907414984,1.51481898932117
401,401,0.0653591743709356,0.0213703895770369,0.948619056088027,-0.0583024496725331,-0.097646195779017,0.0676693421849942,1.68475180000676,1.93268940062301,1.00068911227022
402,402,0.0644135054964566,0.0201041017913325,0.949225363320466,-0.0856975265223444,-0.126734501613134,0.0700283192625412,1.29858409680323,3.40041445031581,1.26918897256433
403,403,0.0633483901361267,0.0188749433761111,0.949836163144616,-0.0945046999848669,-0.0966675137810005,0.0821338781544274,0.632194078564775,1.65124451422267,1.83595006694185
404,404,0.0623354970350919,0.0177466459627406,0.950453504410618,-0.0962236277824531,-0.0305199543022096,0.0958326868742022,-0.315868091263599,-0.180541031420916,-1.32562891520565
405,405,0.0615467038433475,0.0167835863369864,0.951079508327312,-0.103652028252601,-0.0322677953066947,0.0971699180234591,-0.383625976796982,2.48594403284235,-0.379511337320603
406,406,0.0609884822045074,0.0160042361811927,0.951745853284951,-0.106983043575951,-0.0445656170499567,0.093165894035551,-0.249452223748531,2.66231108525512,-0.317880319438016
407,407,0.0605475069435311,0.0153649829776524,0.952449167505486,-0.104171826143899,-0.0524422914109375,0.0876034317761976,0.202131432029195,2.10086547816546,-0.294443436658333
408,408,0.0602160347673149,0.0148379181292404,0.953138933384345,-0.0979051628458147,-0.0459137544107644,0.0805615781773821,0.439747364050205,0.960527731785311,-0.662806406464017
409,409,0.0599862650796638,0.0143957451895968,0.953764493743396,-0.0894941002267127,-0.0360618753875513,0.0728007152370253,0.591656933945837,0.300927373135097,-0.781258310521864
410,410,0.0598503775572575,0.0140116934990509,0.95427512229952,-0.0804885941725824,-0.0307596934396107,0.0641541781539415,0.585614638671271,0.0532951712841489,-0.808978579371579
411,411,0.0598168733338217,0.0137020656696974,0.95466923749968,-0.0685518319480059,-0.0297732948335107,0.0538232484817226,0.546100718949824,-0.0291013383016403,-0.993890359930872
412,412,0.0598915163135614,0.0134854302827378,0.954979473573504,-0.0527848048588397,-0.0302022839791928,0.0414729274023476,0.507292952289284,-0.0705243144378399,-1.12401338150483
413,413,0.0600623588767446,0.0133386175417613,0.955206578277577,-0.035344219187574,-0.0293425697007131,0.0282982155819747,0.59303233623319,0.0741918927468667,-1.04069600778025
414,414,0.0603173859467191,0.0132383820444187,0.955351429975916,-0.0177264825251145,-0.0262725282018601,0.0155473457117186,0.520212489385432,0.277002520938588,-0.996279109425209
415,415,0.0606444830006531,0.0131614502255355,0.95541504315162,-0.00225485756522997,-0.0198583857324223,0.00430951704654118,0.417184043811431,0.389830349193434,-1.01545269021882
416,416,0.0610642167194628,0.0130502151884235,0.955395174862789,0.010225138499911,-0.0111079091920398,-0.00580092691231554,0.569083160646789,0.56675846539405,-0.921009345141942
417,417,0.0615844498729606,0.0129206446750312,0.955291675184004,0.0210868831041579,-0.000457678101730188,-0.0153318865291934,0.649173736728307,0.674696655338606,-0.817265851642937
418,418,0.062173799595962,0.0128597297972185,0.95510892339234,0.0311841031033609,0.0112679007315164,-0.0244183515558015,0.642649126496261,0.771190943730453,-0.78901890740246
419,419,0.0628007643468764,0.0129542943409484,0.954851363565627,0.0408084621623102,0.0229673159722579,-0.0330211493634211,0.471959196767886,0.776447757960168,-0.800223228542631
420,420,0.063433753772079,0.0132910030103062,0.954523468657192,0.049614510735736,0.0342956942001633,-0.0412944707443868,0.330689199182001,0.690256996456434,-0.864047640086316
421,421,0.0640850426251674,0.0139150137636907,0.954112903324502,0.0569105846123726,0.0460233233413566,-0.0494865233228548,0.292454227804645,0.595888284300961,-0.857344991783486
422,422,0.0647745560893633,0.0147687396099177,0.953618759820732,0.0629399869482674,0.0584761919025024,-0.0578193250270362,0.235300481489383,0.477430723928852,-0.805913580815478
423,423,0.0654821578489798,0.0157845195735511,0.953062604769845,0.0678907154552836,0.0716752168242301,-0.0657029627395096,0.263501613680346,0.401735608992903,-0.690908709642909
424,424,0.0661878405766301,0.0168944943150519,0.952465863346858,0.0739178985896693,0.0856011989775396,-0.0723079522772497,0.167740973874273,0.307343132161132,-0.7107039095601
425,425,0.0668717634073378,0.0180305785143972,0.951849849749241,0.0793483094728153,0.0981288957128082,-0.0774476770452133,0.22583642851934,0.349905577831876,-0.651981217970338
426,426,0.0675363141388002,0.0191967944789946,0.951190792391203,0.0843282843806809,0.10860053910065,-0.0814153651839633,0.19015783478067,0.37126420080543,-0.456442590555635
427,427,0.0681935441136564,0.0204381156624014,0.950478030249506,0.0873188964323941,0.117770505469219,-0.0835032341422387,0.0661791574494248,0.480922154130594,-0.153818447719207
428,428,0.0688384186353276,0.0217477858635042,0.949751933010198,0.0865774783807923,0.124969396899601,-0.082774151550427,0.0283020303188089,0.551966923873919,0.115471208889911
429,429,0.0694661828365031,0.0231191911953098,0.949051906075842,0.0863206709030104,0.128447209101351,-0.0796225728183886,-0.228014573195882,0.634453691891489,-0.11910866225317
430,430,0.070072335276014,0.0245459008278378,0.948416282021992,0.0826523443350432,0.129783649856492,-0.0751398197900084,-0.133599859482413,0.793979010264981,0.0365415031436103
431,431,0.0706501308975396,0.0260278031887045,0.947825348256157,0.0782783124085226,0.135060322123839,-0.0673437104924526,-0.290107475224018,0.735876553990857,0.426031378765686
432,432,0.0712014941543595,0.0275698992063783,0.947256412266053,0.0756968596810142,0.143643002196144,-0.0552955346022266,-0.641409587663886,0.633572075268739,0.626655147536149
433,433,0.0717358311375082,0.0291724885746227,0.946741495668336,0.0708824685096942,0.149276673674695,-0.0420538543837894,-0.600112507979256,0.621651195412394,0.86076730396226
434,434,0.0722637271457594,0.0308343438077358,0.946311110759143,0.0663482405167978,0.155995192103809,-0.0290583237175178,-0.419299839077481,0.322587588934873,1.08612307342689
435,435,0.0727969940591855,0.0325526905339982,0.94599433911866,0.0633148739317506,0.158775795196792,-0.0174882770368881,-0.497204471941312,0.305900087804595,1.62072481717767
436,436,0.0733234528998623,0.0344219659154559,0.945815432069399,0.0627911388294266,0.15549653216745,-0.00546144081275296,-0.438151523549185,0.215005474318749,1.92537310911685
437,437,0.0738373198718341,0.0364387323331854,0.945757451249831,0.0684784784544862,0.152825039770718,0.00914417005862768,-0.981733448875054,-0.314351581349069,1.60819529946993
438,438,0.074360505307893,0.0384555485771001,0.945783161643664,0.0769836618449099,0.148951798020907,0.0237603757998068,-1.18382678196455,-0.287251807196406,0.850921314700981
439,439,0.0749141222400615,0.0403297468126691,0.945850444581374,0.0819444556479402,0.143710310566674,0.0350121482821398,-0.885787010658283,-0.214869149737002,0.541348280543324
440,440,0.0755185806241027,0.0419226832503623,0.945913300197872,0.0824475040306256,0.135445423385914,0.0404845061546583,-0.697323411889424,0.223568198696605,0.836502239200928
441,441,0.0762085722571438,0.0431961490549287,0.945960166581857,0.0813739122936346,0.122887052098825,0.0389279054747983,-1.02035063417026,0.0998760974634326,0.954752825006124
442,442,0.07697116960337,0.0442468413525851,0.946016946125987,0.0795943025643924,0.110612997082754,0.0324234135457105,-1.55740535254066,-0.425285332547459,0.179970944977737
443,443,0.0777547734469596,0.0451388329678857,0.946093415625423,0.0774707437257345,0.0946811110002153,0.0230153809919617,-1.98715536352521,-0.172868858303384,-0.521624342356202
444,444,0.0785071917216223,0.0459348615424852,0.946199784744034,0.0802779925030107,0.0784878105072051,0.0116403608352764,-1.4715777612976,0.261890640258663,-1.20949546282111
445,445,0.0791755545103946,0.0466968649052879,0.946345712987938,0.0764878364069224,0.067128226885508,6.80031977136756e-05,-0.863354387543242,0.346244035613227,-1.54652236269006
446,446,0.0798093180545976,0.0473078235682598,0.946544850569289,0.0726849680039099,0.0639401324623074,-0.0148013962109759,-0.886699906008843,0.530741366344901,-1.72764771137635
447,447,0.0804422270848708,0.0477245919108478,0.946792350594898,0.0682155716828204,0.0676742631876634,-0.0340597257913876,-1.00537608607357,0.697546144788306,-1.71098353666433
448,448,0.0809976208371248,0.0481199990449389,0.947068961697604,0.0615974817609958,0.078233764839258,-0.0528247932348255,-0.749998003254802,0.727536156107166,-1.44887312918452
449,449,0.0813994970814353,0.0486676052190053,0.947354351099961,0.0525485271182526,0.0899618737660777,-0.0665807454172536,-0.43217449178855,0.644841699850288,-1.17216291350281
450,450,0.0815726872382422,0.0495417638129532,0.947626838473662,0.0396600301661607,0.0948004012722682,-0.0697778725478324,0.0703796975891485,0.712971909152238,-0.576394797576761
451,451,0.0814505798124815,0.0508337668699605,0.947864461395977,0.0300566912348159,0.0966274201360939,-0.0608357681059892,0.780922011696915,0.397492372267072,-0.477942014353869
452,452,0.0810829003938365,0.0524274493400705,0.948081527643004,0.0162238601357673,0.0979465165664483,-0.0385588080787844,1.0968235582165,0.135261011227161,0.02348089258922
453,453,0.0805700367923648,0.0541867830212176,0.948309114032797,0.00152702383730314,0.0962633297062957,-0.0093109825886799,1.36119251693277,-0.175327098152258,0.772653499336371
454,454,0.0800128833389021,0.0559758556861977,0.948577490692579,-0.0126526768398512,0.0924020378606916,0.0199280957396495,1.80101273936173,-0.5675359235929,1.66997192796681
455,455,0.0795127602422415,0.0576588126638554,0.948916231594966,-0.0261539161844624,0.0848964936802729,0.0431324996129421,1.88180112447242,-1.17881797399714,2.44440440016084
456,456,0.0790392956799866,0.0592934703724641,0.949337814987999,-0.0321330884296535,0.0724626679012233,0.0587954156663349,1.63245239314792,-1.81734037375924,1.85772754496457
457,457,0.0785255116536896,0.0609707992863412,0.949821093620387,-0.0308673738380455,0.062854038268612,0.0716480141547245,0.765935767946088,-2.29460913634498,0.910724864762942
458,458,0.0780183307221122,0.062604961617861,0.950344086699359,-0.0291569114026189,0.0539250897898989,0.0817838724761468,0.548493940228154,-2.42853318042491,0.833069662055117
459,459,0.0775650627333199,0.0641103527342165,0.950883888642507,-0.0273538389262747,0.0431957763775047,0.0893585213778084,-0.365126616236469,-1.85163061112489,0.405112356774583
460,460,0.0772133360165914,0.0654014983024086,0.951416818647338,-0.0311603151637861,0.0366195008192373,0.0933364708841822,-0.508438484504481,-1.58883496127378,0.290917130674332
461,461,0.0769719379249847,0.066465555074025,0.951969176851442,-0.0408821319316042,0.0342106910526466,0.0932605396573563,-0.167005522665971,-1.48729647712732,0.245590468214237
462,462,0.0768099641052195,0.067360313377823,0.952554098773535,-0.0512319940877857,0.0333662620248844,0.089896248033316,0.0922957328224741,-1.4548032498823,-0.124730886318428
463,463,0.0767155608103631,0.0681059274496438,0.953128073299765,-0.060369480564427,0.0320193509292048,0.0842282721611333,0.441357887744343,-1.23812648222046,-0.401615758627618
464,464,0.0766768982366778,0.0687221689727661,0.953647921324078,-0.0668044237662655,0.032669987675181,0.0761556868513493,0.533686907656795,-1.10346337270114,-0.562433060576181
465,465,0.0766822742486769,0.0692285573240591,0.954070703196538,-0.0660633466662463,0.0302513067119719,0.0673427000540112,0.320216979862657,-0.6025801102623,-0.788025730260531
466,466,0.07672921528723,0.0696024689612893,0.95439685959485,-0.0560280586709118,0.0254337516375268,0.0570387153392182,0.0818130634928153,-0.222598481782369,-0.997896393271726
467,467,0.0768257110421678,0.0698306148924963,0.954654427934222,-0.0400583829495093,0.0200318893667349,0.0445244749585545,0.100411675149081,0.00414497431594021,-1.00711897110408
468,468,0.0769758488533542,0.0699464385011894,0.954842093250788,-0.0215918954068438,0.0135072308789744,0.0308919661750948,0.334697662271429,0.214761985293769,-0.926669956485388
469,469,0.0771837222474769,0.0699833281186594,0.954958611092675,-0.00303539799901251,0.00813117679312516,0.0170259775304286,0.418563125158921,0.0977918677873738,-0.921955600617229
470,470,0.0774534476031432,0.0699745541150462,0.955002801985846,0.0116270003441786,0.00332907861213041,0.00435880831716562,0.472700829183242,-0.0101843360740419,-0.911397861247621
471,471,0.0777826634817993,0.0699358959285163,0.954970959359728,0.0213714868381276,-0.00223628254125578,-0.00713758521872818,0.688683829860907,0.0534716630849284,-1.00232300647566
472,472,0.0781684470915109,0.0698447343774449,0.954864359542846,0.0288411886534815,-0.0085293797225839,-0.0184767819362233,0.951798611218339,-0.116187068404613,-1.07856040610407
473,473,0.0786140795244304,0.0696767061049892,0.954689459181567,0.0353292348740973,-0.0151694950455326,-0.0293682263388695,1.00760949232692,-0.314910668026573,-1.11645703026925
474,474,0.0791228486574717,0.0694076030858571,0.954452794452978,0.0422283612447605,-0.0225567558616099,-0.0394939964412547,0.835557302175739,-0.475650321471155,-1.0889960708009
475,475,0.0796980581147531,0.0690134451885312,0.954160939975719,0.0499529167201528,-0.030716196000499,-0.0488780057830319,0.559227531524141,-0.567714044412735,-0.962159590001144
476,476,0.0803926207152954,0.0685043607652148,0.953812815426137,0.0565218718310042,-0.0392983765056475,-0.0562332866347206,0.372389471756145,-0.343621549295574,-0.723954981236068
477,477,0.0812038547778105,0.0678963144549075,0.953405796030638,0.0630780872413037,-0.0488878197538512,-0.0622778697220987,0.232568791617496,-0.270577375551753,-0.611215126365704
478,478,0.0820517843735407,0.0671743676306432,0.952943803052852,0.0696439648340292,-0.0600893025055581,-0.066797291431928,0.173931546639456,-0.266780282564103,-0.504971231582951
479,479,0.0828566053507411,0.0663236584081762,0.952430145599233,0.0747801434120411,-0.0702615561373584,-0.070038884090501,0.25424770599526,-0.393026731067816,-0.307690240535825
480,480,0.0835387087802558,0.0653293676056037,0.951867431954577,0.0776210283634669,-0.0791866799717627,-0.072176594049292,0.273473725950979,-0.482177882190637,-0.243288197422503
481,481,0.0840811007355623,0.0641566208785443,0.951238198023653,0.0777607107875679,-0.0876192260882109,-0.0734900672492196,0.399667103415101,-0.558161114263618,-0.0668874382180241
482,482,0.0845367969289679,0.0628156794764821,0.950541254992175,0.0757036101383732,-0.0972840927093194,-0.0738576647721263,0.461807336072076,-0.503873971566984,-0.0376576622814907
483,483,0.0849312949922472,0.0613593657676762,0.949803213454623,0.0724137085643633,-0.10829047160886,-0.0731740352016554,0.411136627867366,-0.384691831917397,-0.0564710142384194
484,484,0.0852900423506733,0.0598403789591766,0.949050891011912,0.0687305599732217,-0.118605970417391,-0.0713700822677484,0.261407731917903,-0.363175706684184,-0.0465925455433903
485,485,0.0856384103695799,0.0583112700097078,0.948311454219256,0.0640277751787407,-0.125270471624118,-0.0684489947874609,0.235844844643215,-0.157913565662288,0.182801093997704
486,486,0.085996807424647,0.0567281209451709,0.947547639159333,0.0582020108565731,-0.128912218247445,-0.0621626940757314,-0.00602157625805979,-0.548427531570255,1.03748657457625
487,487,0.0863478303802246,0.0550558177122055,0.946743618346833,0.0529708182967989,-0.129485374382816,-0.0544955026842069,-0.00433916083710873,-0.635932316018458,-0.02421220733476
488,488,0.0866603409120277,0.0533601394544683,0.945958399604188,0.0463737451331787,-0.134416155599285,-0.0473097914787777,-0.417473796568314,-0.601044701770001,0.904130497807386
489,489,0.0869037004403347,0.0517070530405233,0.945250022794719,0.0416131529140584,-0.139590290695096,-0.0379630571665706,-0.440089402392823,-0.318192100609699,0.578259466822359
490,490,0.0870477509989412,0.0501627844376114,0.944675764432666,0.0357712011365404,-0.141983209858838,-0.0287297011735852,-0.416050290978904,-0.237717463397957,0.886916209537179
491,491,0.087075877289119,0.0486476684160033,0.944242842612504,0.0276723447529978,-0.142991573732215,-0.0174104906620983,-0.50831252915055,-0.148179254444268,0.936821429780179
492,492,0.0870086679060103,0.0471188659752347,0.943916027700514,0.0169633440808552,-0.141515338353973,-0.00387072843537901,-0.689438154702871,-0.093074673541436,0.87508840144415
493,493,0.0868720133258957,0.0456971507572881,0.943686746829712,-3.38580497586631e-06,-0.138427861610083,0.00995738447458725,-0.738901647413852,-0.153749140338261,1.11664668732247
494,494,0.0866916326875787,0.0445018710977303,0.94354392871437,-0.0199032318059693,-0.130832153775614,0.0229150030955924,-0.908096913350362,-0.671377244649773,1.81530315873038
495,495,0.0864929684960844,0.0436511492163352,0.943474520129268,-0.0329919349513397,-0.118584328085661,0.0323805362201661,-1.39909896439963,-0.497536867044257,1.94777705086708
496,496,0.0862538673513163,0.0433553068137542,0.943486982508303,-0.0416857763037001,-0.108947596222406,0.038513455396145,-2.21025741407019,0.346778632244541,1.18811491354405
497,497,0.0859566437117003,0.043534332778415,0.943591669706368,-0.0557016665502639,-0.087851357546389,0.0424953214107723,-2.02613296704208,0.0299838838126138,0.69627738383415
498,498,0.0856331345992648,0.0438707083007818,0.94377713200149,-0.0692205792737394,-0.0627819150784233,0.0436994677303303,-1.33271096422897,-0.448582909944998,0.424894794378734
499,499,0.0853151542619456,0.0440473390949602,0.944030068579737,-0.0795599435558663,-0.0465533959096982,0.0428335604052771,-1.26348315402988,-0.422050321189369,0.0542142559359911
500,500,0.0850345662431595,0.0437474030636303,0.944334593476691,-0.0826289042712488,-0.0399794050734662,0.040991463063952,-1.34812253527406,-0.742693793755206,-0.0553742008375991
501,501,0.0848251253127044,0.0428402947223702,0.944691297038768,-0.0716854702414089,-0.0532286373192314,0.038017016484336,-1.28082649690879,-0.687429186098745,-0.168872831762959
502,502,0.0846629741258308,0.0415379138665971,0.945112143868156,-0.0511306873039078,-0.08331660370964,0.0338608733651771,-0.850986425647224,-0.715850131321314,-0.189450816515569
503,503,0.0844946633047057,0.0400375676140706,0.945595204802097,-0.0244892866405235,-0.120745662625161,0.0298210497249721,-0.450579407734749,-0.975202409985522,-0.336023597815666
504,504,0.0842686061720352,0.0385367392660441,0.946136430593506,0.00221282005478105,-0.151180986300579,0.0278514036365436,-0.486176627989539,-0.721263699291762,-0.726630019863078
505,505,0.0839351264327154,0.0372330061369544,0.946729636003934,0.0174916300928787,-0.168596026111574,0.0295936740635623,0.0205463857980729,0.176761791226901,-0.930627262126868
506,506,0.0834632572114453,0.0361455060811215,0.94739194915979,0.0117174049113403,-0.16746622444733,0.0361019479562987,0.824436301329849,1.27933845188321,-0.675234056327586
507,507,0.0828871377501858,0.0351445764740053,0.948124830387583,-0.00930738500324173,-0.144791926494847,0.0476392309846813,1.59717706489549,1.93836770126827,0.00862035864778021
508,508,0.0822561659108755,0.0342031074874485,0.948896889542245,-0.0381075570273138,-0.100261912775052,0.062073568375821,2.02066038981788,1.82553721075166,0.578472858196257
509,509,0.0816199996505662,0.0332920813401632,0.949676142760353,-0.0654579214969197,-0.0622107590851878,0.0744386589187185,1.47326236055715,2.04456736912834,0.988248599404774
510,510,0.0810285648175499,0.0323808552448008,0.950430097020299,-0.0819100567778447,-0.0335489223310685,0.0834273565359344,0.496271106682002,1.4311030364883,0.932923933442777
511,511,0.0804640373728568,0.0314201185782639,0.951170140679146,-0.0959446553969177,-0.034500582432904,0.0847885241171456,0.445914898731724,2.28031736391009,1.12296939541338
512,512,0.0798943787234213,0.0304276981344402,0.951915304725402,-0.0953561320906098,-0.0127218742330746,0.0917241887961737,-0.141602049305365,1.41420151457602,0.560720921468727
513,513,0.0793485969244977,0.029473436769582,0.95264406450999,-0.0905563657645122,0.0284824587548358,0.099376242609089,0.317703662450657,0.419687103672937,-0.928509700270556
514,514,0.0788559844036907,0.0286280306356215,0.953334466261186,-0.0913388482091544,0.0166097608241691,0.0965878610123697,0.167473499687003,2.29223220604838,-0.254998328198985
515,515,0.0784460634840771,0.0279628793046931,0.953964177707347,-0.0915832685635889,-0.00586829013919547,0.0888790311013126,0.271651291351975,2.20289780019025,-0.14223217798978
516,516,0.0780897303947943,0.0275196527297355,0.954548877464334,-0.0866512387714891,-0.0133323296503827,0.0798851064628127,0.618267624688251,1.23563363021662,-0.428287274032256
517,517,0.0777683727635788,0.0272510890826566,0.955101249381849,-0.0782232592315447,-0.0107256178880632,0.0688483332765641,0.746174588004284,0.251888494389952,-0.886506247501212
518,518,0.0775272062342692,0.027095785547676,0.955594544731354,-0.0676522459411132,-0.0107666092933141,0.0555187172398616,0.708323670772134,0.0184227201721128,-1.1665080420413
519,519,0.0774114489624373,0.0269924548969691,0.956002260897724,-0.056302018684886,-0.0134626474029684,0.0410992544332706,0.664666996116887,-0.0784740953896546,-1.3311602793532
520,520,0.0774664020097512,0.0268798343625078,0.956298108025926,-0.043798518057701,-0.0146588411751862,0.027570885087934,0.552587607861368,-0.0884323936542723,-1.39071772389069
521,521,0.077736218408559,0.0267187131932748,0.956476740547052,-0.0288687767110694,-0.0138280793872813,0.014799653407179,0.509306087516192,-0.0105503901429342,-1.34845460453899
522,522,0.0781908126502432,0.0265504878968391,0.956555510365291,-0.0115931985104605,-0.0116917562953105,0.00173795780012565,0.485110896806701,0.0752464395249131,-1.22666680493142
523,523,0.0787640874588875,0.0264347079458699,0.956542494798997,0.00589113242631826,-0.00782293020222655,-0.0108130110076812,0.533091423394588,0.278563633536624,-1.09723310278662
524,524,0.0793898535147241,0.0264308638403166,0.956445927178046,0.021882842725249,-0.00207226713930084,-0.0225237039143152,0.514813242780739,0.489941320111387,-0.983249740020168
525,525,0.0800018722899365,0.0265984112553818,0.956274142758423,0.0340959830272916,0.00614429486255287,-0.0328555341529151,0.445097373447936,0.644964516791147,-0.910155147212986
526,526,0.0806135841029925,0.0269314507074776,0.956019667608039,0.041054608468234,0.0188854256054633,-0.0415354487730037,0.373925087371187,0.722820661415922,-0.782995815050151
527,527,0.0812685200448877,0.0273906699433299,0.955678325429141,0.0448337694440454,0.0358923289376579,-0.049145656319826,0.233637796638476,0.637813644240863,-0.714890062019836
528,528,0.0819455051639105,0.0279851619661591,0.955263440914738,0.0476829453032737,0.0542523753656333,-0.0555885954606755,0.107961891119492,0.528419653156796,-0.689238428382166
529,529,0.0826232913871802,0.0287236592820356,0.9547882915501,0.0503544347966932,0.071329564534413,-0.061403260787054,0.0543159681286935,0.41540160264065,-0.677338106583648
530,530,0.0832806057406722,0.0296145222618724,0.954266152772191,0.0540998465846124,0.0851725407592899,-0.0667681044522561,0.0638023760536261,0.334957254324027,-0.678234425097472
531,531,0.0839106576910755,0.0306884737798763,0.953670262524369,0.0589496378229263,0.0960875183689531,-0.0716486043787814,0.0960499934811445,0.258970508823998,-0.677380389092287
532,532,0.0845266260905092,0.0319388785106752,0.952994690321596,0.0640113164144277,0.103253724562777,-0.0762443078404577,0.172994970017246,0.322883500560761,-0.586448178690208
533,533,0.085137346701948,0.0333182298292482,0.952283540074209,0.0694910538803432,0.110378966869852,-0.0798540353836912,0.128738531552636,0.26662153215241,-0.576862507842061
534,534,0.0857518499990661,0.0347796418949803,0.951580035179596,0.0730262113285047,0.117488693565279,-0.0827615837613973,0.0311933327733693,0.197258537545491,-0.425651527309817
535,535,0.0863792560772296,0.0362768947788767,0.950926533218878,0.0719183321585533,0.124241294227678,-0.0839921090045449,0.0226599628455775,0.269561731632815,-0.0542821176628108
536,536,0.0870893360582307,0.0378403967319572,0.950334479536638,0.0668357065197161,0.131576030539541,-0.0829200484509803,-0.285172817286485,0.300825431089393,-0.00109299694011077
537,537,0.0878746932764426,0.0395018575680804,0.949778341262322,0.0603106094751123,0.139875943372979,-0.0807287111137446,-0.535456413452631,0.344576197646301,-0.16856027360549
538,538,0.0886290765846092,0.0412168884335798,0.949243934848464,0.0531690172713026,0.148237834940826,-0.0783541720610149,-0.602746353682639,0.50037680500191,-0.198508777459663
539,539,0.0892470790014879,0.0429402342745113,0.948716036700562,0.0476139079382328,0.155367122187744,-0.0746652923853257,-0.668463609534597,0.826082993944945,0.315783256381535
540,540,0.0896243446452911,0.0446257518122626,0.948178463654995,0.044467967917208,0.159444647795165,-0.0690501288291702,-0.66813480888074,0.935048340871573,0.535875002464419
541,541,0.0896604315471417,0.0462505903400153,0.947611190845877,0.039606643024177,0.161304662044387,-0.0609260045579948,-0.544132690567141,0.541529379632433,0.690200589304428
542,542,0.0894254454700001,0.0478437374509153,0.947028490760331,0.0333429648646987,0.161623861063684,-0.0491794882643349,-0.675262992552308,0.341236427087853,1.05037304488038
543,543,0.0890721698281611,0.0494367693907969,0.946462651128359,0.0280444139895844,0.157191287981706,-0.0356832931232362,-0.721027215298274,0.201849695776925,1.133190493648
544,544,0.0887537404000113,0.0510621659305346,0.945942311432312,0.0216872796351075,0.145888454645959,-0.0233478823214987,-0.790044252476683,0.0570022633456548,1.15948112551493
545,545,0.0886233137140849,0.0527532422984266,0.945492708419254,0.0181703465015083,0.140827749548738,-0.0140961655935177,-1.21148712252413,-0.401537903870273,0.672883016189242
546,546,0.088709666022756,0.0546547595775389,0.945059150548361,0.0138380660873164,0.138628922121235,-0.00978534773502248,-1.47974569425402,-0.286235509541985,0.166352668270122
547,547,0.0889115822411283,0.0567442986818779,0.94462211463073,0.00904530403960731,0.139217701500804,-0.00926017213332681,-1.4907688065259,-0.194816741968632,-0.317733691768642
548,548,0.089186892888096,0.0588056957045383,0.944257172034896,0.00458586510160419,0.138422773724156,-0.01076513262104,-1.36052710523897,-0.0116549609944186,-0.335989711911077
549,549,0.0894933021775871,0.0606236835006129,0.944039411029887,-0.00147223352622494,0.133633185863405,-0.0115362367945756,-0.921905745537024,0.439245898333288,0.383995286874306
550,550,0.0897885236202151,0.0619836142764857,0.944043588114664,-0.00185655053427289,0.125859410280912,-0.0101152122823488,-0.876792896534464,0.482328606727986,1.26597470121137
551,551,0.0901148165076684,0.0626764922247773,0.944348614132119,0.00950620103898732,0.117382134268138,-0.00482730086848553,-1.29097642776422,-0.0807439228779463,1.52758314071815
552,552,0.0905001327817649,0.0628469227981955,0.944905025596124,0.0283652626440545,0.102404772614971,0.00345468763036562,-1.44455832068391,-0.152906963983212,1.29176126625592
553,553,0.0908806783866793,0.0628099026200549,0.945594671026883,0.0495774120670544,0.0787355343287212,0.0125922906126699,-1.19355810508015,0.201498323180523,0.784820529989335
554,554,0.0911925830813817,0.0628794030549016,0.946297949439148,0.0625992755013897,0.0600538760881434,0.0206674870450479,-0.480890193416762,0.218280291972963,0.368939686736817
555,555,0.0913720490278929,0.0633686717876903,0.946893157960114,0.0607134436106614,0.0533905393575446,0.0253324064772127,0.821318571186501,0.0668927082431695,0.0780026488254508
556,556,0.0914346933285835,0.0643491331468642,0.947359929002808,0.0454204355791201,0.0546928034515908,0.0262721475122293,1.2895073877112,0.030580480974781,-0.0816419743906384
557,557,0.091422273325578,0.0656096078375463,0.947778376946356,0.0260695890571253,0.0632893616165604,0.0255418941966236,1.0948075811182,0.100922658702424,-0.80720007764551
558,558,0.0913107772545228,0.06704025929329,0.948175942333826,0.00675759342837654,0.0714805496095975,0.0261434989934764,1.18882858343619,0.279119452748711,-0.767023492803823
559,559,0.0910767986849492,0.0685327245392347,0.948579994049401,-0.0127196919014602,0.0771024194368776,0.0287562307940834,0.959691847744859,0.258804015811772,-0.514325792348666
560,560,0.090697478184917,0.0699800079119588,0.949017839849436,-0.0291745780786436,0.0794341801855533,0.0335917192357391,0.910737847967197,-0.196914061887362,0.028765604588812
561,561,0.0900567301273838,0.0714201526645012,0.949486728518785,-0.0335562270981148,0.076615267912043,0.0412316307788579,1.27016479318086,-1.1387725381104,0.0691534372881051
562,562,0.0891701245158476,0.0729265932204707,0.949967902953378,-0.0379798928305122,0.068068285467223,0.0537330325643487,1.30522200327999,-1.71107145129838,0.270101394170655
563,563,0.0882129043499146,0.0744459062229442,0.950463731646111,-0.0425156076988376,0.0543670491396684,0.068100750445726,1.28745070535327,-1.86125581203704,0.771850806548037
564,564,0.0873608582914917,0.0759238197555603,0.950975463108969,-0.0458951434652879,0.0415173451428412,0.0811316738378965,0.834250662318502,-1.79263323415921,0.99137588656971
565,565,0.0867902794660966,0.0773052004159324,0.951503388296606,-0.0501965241523999,0.0338626385742334,0.0891592955970145,0.541950336308036,-1.47080789279692,1.22963756981319
566,566,0.0865380049296747,0.0786683140824469,0.952076435207042,-0.0476767180388884,0.0322011552676932,0.0902214758770341,0.31104798435687,-1.46396138922394,0.63407570045517
567,567,0.0864876375787926,0.0800498970833333,0.952691745403724,-0.0411825025830921,0.0363266740850479,0.0877299955730997,-0.0544058088270173,-1.27093848237926,0.0521629691225169
568,568,0.0865857415476859,0.0813318756080073,0.953301495844723,-0.0322858694997401,0.0438543294827123,0.0823388761178564,-0.159291733307014,-1.12538255651402,-0.313066574816416
569,569,0.0867787579056103,0.0823960813426764,0.953858066735182,-0.023046686014841,0.0503901186062248,0.0747927452673233,0.00312443596227509,-0.982147186438293,-0.503332079336213
570,570,0.0870130320223678,0.0831242792753409,0.954314072867826,-0.0142340326847915,0.0532050944640079,0.0658820433037964,0.0419380235194903,-0.922879899521841,-0.829572802222253
571,571,0.0873280578081823,0.0834271255032179,0.954678982602523,-0.00695368769034636,0.0485397810404796,0.0548092708149791,0.183051130664517,-0.749378413764147,-1.05067564361136
572,572,0.0877596428886055,0.083383141344227,0.954983622485127,-0.001052735067304,0.0386846923226917,0.0408216032942306,0.382855302248157,-0.61484907608973,-1.21848913753124
573,573,0.0882485388815586,0.0831259043131073,0.955212951972394,0.00314811890514857,0.0258372447488054,0.0254119593462336,0.643107258793985,-0.436302060261198,-1.21720348484539
574,574,0.0887356099530281,0.0827890110172264,0.955351943234558,0.00759321102240598,0.0113146411575683,0.00997543883362432,0.701791629110731,-0.192075200948661,-1.16083900617868
575,575,0.089161874916268,0.0825060114591337,0.955385535922753,0.0131376579544433,-0.00185262999862324,-0.00385235408968659,0.663720367002785,-0.0717297975906425,-1.22278991275428
576,576,0.0894929512714953,0.082306574856576,0.955299544053124,0.0198738503978733,-0.0118617778782155,-0.016830983393058,0.575679748014041,-0.0297637682184206,-1.20783653212607
577,577,0.0897679098697932,0.0821010918254091,0.955104549048615,0.02669907196219,-0.019557015167109,-0.0298614590956668,0.603262488980965,-0.0573695736248961,-1.15998497371198
578,578,0.0900380303979346,0.0818442638183886,0.954822771519931,0.0334575856731632,-0.0255511945921086,-0.0421079781296601,0.648610616091654,-0.091042226309435,-1.14153399201651
579,579,0.0903545944753116,0.081491140367263,0.954476524453522,0.0396273937056264,-0.0312522955915139,-0.0529085063237932,0.653958376494759,-0.144122303971407,-1.01534825887954
580,580,0.090768910728866,0.0809972874445738,0.954088176592503,0.0453069278860757,-0.0367395532159194,-0.0616727004146297,0.569121639413286,-0.29989202829427,-0.857308906006438
581,581,0.0913256297001949,0.0803576261927202,0.953650936317447,0.0492607115231904,-0.0426655069020064,-0.0669722952293675,0.538790710968694,-0.166086630487179,-0.687412458198285
582,582,0.0919899956572553,0.0796024072053861,0.953151954710844,0.0547785734302992,-0.0504098556495775,-0.0699722042348942,0.479045059768312,-0.247190582527209,-0.610404566954074
583,583,0.0926943325988418,0.0787405738258535,0.952604279579044,0.0609080923089246,-0.0608633799043585,-0.0715379173183867,0.404798536418542,-0.324073281791138,-0.540153544306618
584,584,0.0933711198786526,0.0777808427275884,0.952020456164333,0.0670083662908142,-0.0728041154771827,-0.0724254216649295,0.391941318236978,-0.436104517817829,-0.425077814962273
585,585,0.0939530115860371,0.0767316060382318,0.951412428871357,0.0720275339162203,-0.0827499809113236,-0.0736223611918258,0.331955878868004,-0.589631932204866,-0.233303445316658
586,586,0.0944568443061373,0.0755869089761808,0.950774305735028,0.0690773672515268,-0.0891428975115314,-0.0723699485249875,0.237000036697621,-0.439701720315243,0.0811321898942428
587,587,0.0949274068414324,0.0743419650525689,0.950099878106858,0.0635081188003192,-0.0948785247919888,-0.0696246133012158,0.232354185454013,-0.448812742335852,0.134110155149122
588,588,0.0953393544282103,0.073006072842361,0.949399656381506,0.0568731899173683,-0.101525135469383,-0.065975192547891,0.101648899257284,-0.484438414395035,0.118935004729534
589,589,0.095667259148687,0.0715876872728387,0.948683471575144,0.0499183709778491,-0.107948140247218,-0.062553045448946,-0.0553193779203709,-0.584832658807486,0.0401782673344797
590,590,0.0958855827451402,0.070094439024463,0.947960588378977,0.0422433395655267,-0.113213296471372,-0.0601230458594189,-0.216558030552971,-0.646279713564427,0.245329272411451
591,591,0.0960164237767039,0.0684676686274083,0.947198066966443,0.0310537104713165,-0.120193245067096,-0.0572449544356101,-0.180775058545656,-0.916232019804156,0.551628449933881
592,592,0.0960761165322664,0.0667007269365529,0.946391130854707,0.0202497415998065,-0.129563298307116,-0.0554862072567031,-0.3832881522487,-0.850420666461952,-0.309234773581214
593,593,0.0960308525132387,0.0648793869277888,0.945590305931978,0.0116406497047807,-0.13826617717338,-0.0544149943860538,-0.792555653857336,-0.952727480858963,0.0799747377904116
594,594,0.0958475307126456,0.0630902564257502,0.944845106803692,0.005245526311132,-0.147212194846203,-0.051519231901654,-0.649518637179819,-0.82347728031759,-0.0622685830842551
595,595,0.095493717882893,0.0614207512773743,0.944204179240621,-0.00296039963003997,-0.156380525949668,-0.0473345181841359,-0.459532948800022,-0.485071803595035,0.24419830577135
596,596,0.0948625703067122,0.0598215698114655,0.943639936677893,-0.015224673069237,-0.160582699837126,-0.0391452984326558,-0.651513862856774,-0.372129336800475,0.642852233902881
597,597,0.0939764568750764,0.0582353119326418,0.94312106184311,-0.0309295517854456,-0.157748850732298,-0.0279219095700918,-0.741690371492599,-0.453512194407591,1.03292932027285
598,598,0.0929971056506904,0.056737668692858,0.94268923010753,-0.0484172284983492,-0.152199276295498,-0.0145150080457437,-0.873546335383285,-0.151025253793154,1.12831267002049
599,599,0.0920860542178869,0.0554040304134767,0.942384993337291,-0.0683933842425108,-0.144939747625496,-4.04930554251788e-06,-1.24897639752352,0.0695238128084364,1.46277137699563
600,600,0.0914045282081259,0.0543094783969624,0.942248212688022,-0.0821112901212644,-0.13673920150945,0.0138460844630737,-1.50410846060833,-0.174237484871254,2.06335238177727
601,601,0.0909887661200449,0.0535959741398664,0.942308163497764,-0.0859439423243235,-0.129331240645503,0.0282146846115536,-1.70414483902753,0.0598223496629171,2.31873996944882
602,602,0.090730560715552,0.053213671128674,0.942540637599767,-0.0801257506206562,-0.122323536068911,0.0443536892984791,-2.13050801663548,0.569547418120679,2.0900754943719
603,603,0.0905739911470652,0.0529494999624108,0.942904912302037,-0.0693249731060011,-0.111118326305091,0.0598013315396984,-2.17444839563204,0.379303086642678,1.9360493250138
604,604,0.0904630488430507,0.0525902567344791,0.943358912654108,-0.0562089340203228,-0.0958216975766187,0.0717995200071717,-2.07824784326742,-0.0317496191065752,1.3828437666378
605,605,0.0903417417714727,0.0519227533369906,0.943858600660334,-0.0416354993600091,-0.0833926644616966,0.0775450741363959,-1.99416528627435,-0.353125359608771,0.380582518143279
606,606,0.0902734097765989,0.0508496381029662,0.944431290263927,-0.0249245117194431,-0.0854656514077788,0.0738119993854752,-1.17342206734154,-0.505335744598833,-0.181293249906735
607,607,0.0902923588248908,0.0495129433122486,0.945108917194829,-0.00392805611625442,-0.0984561000899981,0.0622737122446175,-0.38759665093995,-0.748060883703792,-0.620907245368115
608,608,0.0903002333420346,0.0480589865138089,0.945851687146074,0.0191351995217285,-0.117052766076185,0.0488144795733713,-0.102487436168945,-0.848395684177333,-1.1193275545036
609,609,0.090200591446017,0.0466344568312485,0.946617830821509,0.0395568237519523,-0.133590377960136,0.0381668511660183,-0.292499694984042,-0.406889681574908,-1.63158939488581
610,610,0.0898987934230079,0.0453862709144622,0.947363559148663,0.0461260424969337,-0.145768341138437,0.0340633174307293,0.272158017587152,0.2559002274392,-1.56058789947916
611,611,0.089347613361654,0.0443847804429852,0.948069991045139,0.0320670064128662,-0.138598194745086,0.0398814543305855,0.88595606758909,0.765676956996036,-1.51597059539457
612,612,0.0886101619728569,0.0435334538970277,0.948765761116029,0.00257298730602294,-0.116922832952436,0.0526834976847994,1.46968331858161,1.504649386802,-0.558822580586842
613,613,0.0877588027803807,0.0427280356038368,0.949475606313501,-0.0351587268097192,-0.0812133908550228,0.0676928222126909,1.82531818628487,1.09878592790373,0.39840501904631
614,614,0.0868668284468077,0.0418631204902962,0.950222128122889,-0.0687645742179687,-0.0497399431466614,0.0808982777692422,1.87510677591723,1.84388134683503,1.42783504479412
615,615,0.0860086058905644,0.040832346820078,0.951025970036543,-0.0957841013661417,-0.0223632364922375,0.0880987748310787,2.30288507859599,1.60130330028085,1.8474729876032
616,616,0.0851029963368617,0.0395111990873933,0.951910713016936,-0.10919028335788,-0.0106603082212548,0.0952817414984009,1.78934165662221,1.82536268669002,2.0468092405245
617,617,0.0841018067136562,0.0379691985418366,0.952858406807276,-0.111653417957626,-0.0148424843933285,0.103896002768619,0.360447437295549,1.82013788151356,1.38657721210935
618,618,0.0831301034952656,0.0363907129522354,0.95382623515407,-0.102055885403357,-0.0164565753249998,0.114764164343336,-0.689210823666519,0.844010054407959,-0.0654310089183504
619,619,0.0823136861801918,0.0349603362819664,0.954771191590004,-0.0928679677405709,-0.0196325416120153,0.119786115548792,-0.0766165266168436,1.08246966921326,-0.355008377642817
620,620,0.0817788798052346,0.0338628394761759,0.955650032516143,-0.0843825773566769,-0.0379290998482793,0.115723962281423,-0.213543731882361,1.41531964326149,-0.471047394294943
621,621,0.0815832657979556,0.0331639069966936,0.956492846481801,-0.0722054738609278,-0.0455949868868406,0.105628707074607,0.346291261325447,1.10827675312388,-0.766108183891548
622,622,0.0816445395952715,0.0327400399708417,0.957325597883504,-0.0549446428933749,-0.0473135881095034,0.0905609084412285,0.601242768782829,0.658753286741149,-1.22126836817387
623,623,0.0818791644248307,0.0324927087824694,0.958098910659024,-0.0367425855834147,-0.0404671952725263,0.0734528577815904,0.890355050893636,0.0983548931309994,-1.49516298532136
624,624,0.0822036987546582,0.0323238279725375,0.958763637333266,-0.0214842449515036,-0.0300449913541707,0.0556682193428681,1.08083256528205,-0.0837888041169233,-1.54803830371451
625,625,0.0825349277512601,0.032135641025066,0.959270910125234,-0.0107610472601607,-0.0215931884214344,0.0390924592904673,0.980100684484942,0.0251643857978425,-1.55187490359824
626,626,0.0828616205526328,0.0318900104137449,0.959614228678482,-0.00466277518760686,-0.0181221295054176,0.0241742859410695,0.94797542995426,0.2951840273556,-1.36714014852698
627,627,0.0832398226155061,0.0316528722960441,0.959825516067821,0.00097063300656853,-0.0168772475083663,0.0105068916940542,0.815096145687367,0.572550555466877,-1.26180892692254
628,628,0.083687168747435,0.0314826036265389,0.959913958503851,0.00732548011010017,-0.0146508517073286,-0.00165326654745068,0.770408391296748,0.666997552962165,-1.12531343961295
629,629,0.0842210612786654,0.0314374670450375,0.959888952920878,0.0151750309337667,-0.00859935050504762,-0.0124122655594137,0.617293127057556,0.574361204240236,-1.12346113089137
630,630,0.0848586784790291,0.0315756347576081,0.959760107955938,0.0240881510498835,0.00157848811956564,-0.0224194337686557,0.756908092298801,0.600736654772197,-1.0364029497113
631,631,0.0856193518848335,0.0319084748623236,0.959519215869415,0.0350551313566223,0.0145649937175667,-0.0319161872647372,0.710080184780782,0.602833890559947,-0.920538212293744
632,632,0.0864904769494923,0.0323975342617214,0.959161570167785,0.0490943674536431,0.0294502485895882,-0.0406330712547257,0.46744320649058,0.559619216537683,-0.915133450646537
633,633,0.08744112333821,0.0330260540608496,0.958702231591319,0.0638062342830571,0.045183850009117,-0.0488582085582327,0.396723787227202,0.453147476730778,-0.879469317220484
634,634,0.0884403563107929,0.0337770238400247,0.958156246139374,0.0775446780060637,0.059394464229492,-0.0570726306310048,0.348919232420869,0.446752097570273,-0.863218921502844
635,635,0.089457303021843,0.0346331195796688,0.957538663297286,0.0884797515770719,0.0717956200148172,-0.0652133868107936,0.341755276837369,0.454147767849039,-0.87787587419565
636,636,0.0905413072715251,0.0356264736687497,0.956840633665233,0.0966877844900509,0.0804313494639751,-0.0736716091840868,0.202525428503145,0.496161628960299,-0.941433475115791
637,637,0.0917108636848639,0.03676775027971,0.956056291990682,0.103029527172268,0.0856157368029099,-0.0825415556635459,0.198901715450584,0.585835245083608,-0.887014903745939
638,638,0.0928893065454796,0.0380073788307675,0.955204653017947,0.10799228135542,0.0903331059258088,-0.0909072921080841,0.16836862692366,0.423346703083526,-0.832707004195087
639,639,0.0940006408867792,0.0392962448595826,0.954303749034555,0.111627697697506,0.0992417617773876,-0.0977966439659078,0.142506338993781,0.296612134451475,-0.883302164395463
640,640,0.0949695959470557,0.0405857983108524,0.953370542722258,0.112573228031148,0.107361827799949,-0.103862046998305,0.169785800548068,0.349312635748715,-0.821155323513853
641,641,0.0957984515991186,0.0418640361737001,0.952364844971882,0.10953641925077,0.115710156645072,-0.109965755737743,0.241808209541789,0.37924326548075,-0.677956488061908
642,642,0.0965366826395881,0.0431633537815355,0.951279870181186,0.103560776412952,0.125916311023582,-0.116114340519373,-0.0367815297398141,0.308607957645173,-0.58838490500268
643,643,0.0971806604445679,0.0445022407261639,0.95018060884124,0.0925688789741041,0.134327629043914,-0.119258147096361,-0.434134144972712,0.457883597933323,-0.319747045431089
644,644,0.0977272152258542,0.0458992008258002,0.949130069123451,0.077573155290679,0.138304362981937,-0.117900982576915,-0.854273860879986,0.623658246215975,-0.025128275192201
645,645,0.0981735854121825,0.047372773953284,0.94818930696612,0.0600394785130392,0.137845471726887,-0.112149741276589,-1.01792891456458,0.816369589426589,-0.471448076897466
646,646,0.0984780532600778,0.0489453383834273,0.947337354262546,0.0401847733456957,0.1350569857993,-0.103337056582284,-1.14644997217348,1.40231688466907,0.421496767342441
647,647,0.0986421942133291,0.050605605213621,0.946535959112674,0.0256847112738375,0.132490201070446,-0.0875413932020283,-1.47977819053952,1.36997212357302,0.788486949216127
648,648,0.0987294055967032,0.0523203740455557,0.945817256021986,0.0145635249985344,0.131157980015668,-0.0709769011984699,-1.36693735136347,0.798147384328986,1.05721059118548
649,649,0.09880438872069,0.0540547816990524,0.945210953015872,0.00358083479441664,0.129962873134753,-0.0542056940394328,-1.51432572625565,0.478597974124475,1.85994833825091
650,650,0.0989328719357698,0.0557723514560905,0.944744526788201,-0.00249408269346964,0.131764696420162,-0.0388822204841825,-1.48176067513,-0.118394220007209,1.87527479500716
651,651,0.0990789049033073,0.057521173197451,0.944372916707559,-0.00593334337571411,0.129010462803602,-0.0255293355876063,-1.09846486150553,0.110980575633715,1.65495728819566
652,652,0.0992006706689404,0.0593208835601132,0.944077344767489,-0.0129711824995334,0.127108223460907,-0.0127637556949909,-1.30441410705069,-0.0405633608083643,1.1512892475072
653,653,0.0993546024087254,0.061094137523907,0.943922463564869,-0.0143203647245503,0.131933474230642,-0.00117866008004335,-1.7144215430182,-0.511053291735981,0.635561992595819
654,654,0.0995961015111599,0.0627672858025424,0.94397160349024,-0.00942573261058401,0.140345522787933,0.00732411672868613,-1.64099724317967,-0.477577524127169,0.923820452033131
655,655,0.0999801167657187,0.0642697530785352,0.944286799597289,0.000340369158629137,0.146014090271343,0.0143849187325578,-1.3030790407911,0.0596344312560092,1.35786480656255
656,656,0.100659898795141,0.0655601036667606,0.945006424710704,0.0260638887308519,0.141142543245247,0.0185600821121424,-1.43273126646398,0.281271615773188,1.74081572719436
657,657,0.101597410687442,0.0666903657608285,0.946089271361622,0.0668107187696904,0.139205048056375,0.0198458372281467,-2.26994561588577,-0.132497849535518,1.17263271484692
658,658,0.102561065536588,0.0677293845496967,0.947326435985434,0.107726517350145,0.140490335938657,0.0196029129633727,-2.465744460857,-0.241743728942978,0.283234876181462
659,659,0.103319616022184,0.0687430243270839,0.948507279393328,0.132437296380722,0.13502033940641,0.0187317542154092,-0.94845916777967,0.256698734647574,-0.389192619221408
660,660,0.103642334600587,0.0697946573616169,0.949418953159447,0.134482545907371,0.126980629379856,0.0187739141784336,-0.255709175788731,0.251639412103822,-1.51211567924275
661,661,0.103444719643296,0.0708458110112375,0.949987943685469,0.113612884515872,0.114777796507641,0.0240610097026169,0.343202667504394,0.0370134712819239,-2.05932946425772
662,662,0.102879802763368,0.0718492279323438,0.950354573421885,0.058210758463953,0.106621863639031,0.0308434282405219,1.98181740244707,-0.563596061181193,-0.698809054108941
663,663,0.102074609146953,0.0728563763162644,0.950623973325031,-0.0100125345230355,0.101231717823339,0.0383531458317259,1.8569758493179,-0.854942726360002,0.000690332756413639
664,664,0.101157371185725,0.0739223408804958,0.950899817819559,-0.0692264850523505,0.0997148906172118,0.045899773212633,1.25712105934159,-0.931351257543674,0.355870466586965
665,665,0.100257410846545,0.0751053157577017,0.951284507701182,-0.106375605326114,0.0981815620953644,0.0533872067952793,1.09269176067318,-0.971790381724374,0.789712857883627
666,666,0.0992845300633307,0.0764918980005255,0.951788755412812,-0.115612141988152,0.0955737515714762,0.0642627759359054,0.963643979842936,-1.59410443531035,1.14594503479372
667,667,0.0981541206404369,0.0780480488949261,0.952340322416686,-0.108379786974493,0.0920919776996173,0.0779294229903815,1.03429929605849,-1.94827310140175,1.34445360823198
668,668,0.0970045237834276,0.0796511528167079,0.952916195719894,-0.0944307297462571,0.0899837518696106,0.0910144009392337,1.18647681038926,-2.00234874754641,1.41166414528496
669,669,0.095974350700554,0.0811763900087756,0.953493133061893,-0.0780804428386563,0.0860212984535044,0.101225384531245,0.814968295248518,-1.67059044501587,1.17557565659598
670,670,0.095202587237784,0.0824971574125888,0.954047754894111,-0.0638506808086263,0.0810442822968488,0.106398897571029,0.0182611522239867,-1.36135229733437,0.324048950165286
671,671,0.0947479634472392,0.0836323258791181,0.954605507197549,-0.0559919054570706,0.0766200553327316,0.105170549330995,-0.0881433013191971,-0.961139440898998,-0.317009892862495
672,672,0.0945188833768958,0.0846653326048669,0.95517918662807,-0.0526728731803824,0.0751398925989969,0.0989136656285687,0.270357551102094,-0.829375398696953,-0.419553869532772
673,673,0.0944289636809215,0.0855654850872326,0.955726785607668,-0.0515187156618316,0.0745804371588682,0.0889127504225061,0.466418287216536,-0.670438975373739,-0.43867517424465
674,674,0.0943917698981488,0.0863019626507808,0.956206664939663,-0.0518972962305512,0.0716886866808987,0.0767312199963679,0.625178278463861,-0.568999354981503,-0.461497745350798
675,675,0.0943208860035623,0.086843754499666,0.956577455481677,-0.0517165041252107,0.0658265780658993,0.0640146522208688,0.529214622784568,-0.525229874891807,-0.723861269303428
676,676,0.0942020067303081,0.0871430149046893,0.956837872080846,-0.048951893177438,0.0561583062498098,0.050139197848037,0.528792773537588,-0.249550469035175,-1.16119892773065
