,Frame,CoM pos x,CoM pos y,CoM pos z,CoM vel x,CoM vel y,CoM vel z,CoM acc x,CoM acc y,CoM acc z
0,0,-0.221755526781589,0.176029322877693,0.948153712663134,0.00110515571558403,0.00358821626897477,-0.0136692026553476,0.0115448719003671,-0.0106478551256871,0.0206608617023202
1,1,-0.221769912612957,0.176268240516646,0.947910343894079,0.000712196116457746,0.00390205348582584,-0.0138449212198356,0.00963583860328236,0.0368473683181197,0.0134883076327714
2,2,-0.221784450704052,0.176512054536776,0.947653611901027,0.000758490295521391,0.00414664556452774,-0.0140135215994836,-0.00248773204037234,0.0709876544408428,-0.00812002191697386
3,3,-0.221798976696709,0.176753395777266,0.947403596644882,0.000628550074240294,0.00437543368289591,-0.0141810380423203,0.00371369008777461,0.0547865461975418,0.00286345967752297
4,4,-0.221813319497746,0.176984897471889,0.947180373958161,0.000563544312036978,0.00472748131846469,-0.0143243411165975,0.011552991400362,0.047324813504914,0.00593325869781972
5,5,-0.2218273018301,0.177199195052378,0.947004015904891,0.000551740431201468,0.00508731708640415,-0.0144212728636359,-0.0109438386854035,0.0641925286295338,-0.0134366574742969
6,6,-0.221842347464602,0.17739462927331,0.94688471169476,0.00054169475388514,0.00523047177970243,-0.0144735659288612,0.00083890433127384,0.0527386817273899,-0.0094694903154506
7,7,-0.221858562235222,0.177576114332138,0.946809072446697,0.000215498767484498,0.00552651046806405,-0.014515836629813,0.0219126908867161,0.0484236440822695,0.00489966405488752
8,8,-0.221873789385467,0.177746146748761,0.946761801602681,0.00022325625181662,0.00583333649058595,-0.0144785758817888,-0.0167009643258635,0.0445426333471681,-0.0109943576572854
9,9,-0.221885873804774,0.177907222445073,0.946727603692127,0.00027356291499621,0.00590584804077972,-0.01443224386011,-0.011303109564035,0.0470001250554521,0.00777494631912035
10,10,-0.221892661786542,0.178061836800508,0.946691184260745,0.000382059237803519,0.00615937708224148,-0.0143885809222694,-0.0130602665883965,0.0351271827882244,0.0160179319379078
11,11,-0.22189340010835,0.178208738524296,0.946654943502796,0.000614920201817335,0.00630432677582588,-0.0142948338045699,-0.00413422753740031,0.0629678710306307,0.0202671481009629
12,12,-0.221889518382014,0.178346266152045,0.946629075005045,0.00115351818062303,0.00675847834492177,-0.0141869164884286,-0.0147712958830102,0.0481411353322646,-0.00669426279151736
13,13,-0.221882139498717,0.178476298971494,0.946609975638663,0.00151811623064938,0.00700331736305818,-0.0140746089018336,-0.0254015421278494,0.0726738529176145,0.00245405674190148
14,14,-0.221872387911741,0.17860071587781,0.946594042417714,0.00187318016870524,0.00719214197922468,-0.0140010700122351,0.00747452179979423,0.0533417976452591,0.0210175757545357
15,15,-0.221861389359051,0.178721395486577,0.946577672317565,0.00196335554214129,0.0071957256591004,-0.013968012455082,-0.0210499904534405,0.0472384303868452,-0.00134459306930255
16,16,-0.221848000159966,0.178837809906211,0.946561538632672,0.00236939536816645,0.00692308614950729,-0.0139568357377101,-0.029351179675483,0.0741594621071269,-0.0131896526026399
17,17,-0.221831468851321,0.178948707307569,0.946548042539698,0.00238814549930493,0.00703052415708347,-0.0140648683073033,0.00606182224680658,0.0344069996173724,0.00785972746490085
18,18,-0.221813510041571,0.179054880146885,0.946536172967297,0.00258544568313144,0.00684536368767999,-0.0141390609623698,-0.0226737844705933,0.0769571025977251,-0.0335204160137235
19,19,-0.221795837953527,0.179157120871042,0.946524918757775,0.00278686561095889,0.00687504306388775,-0.0142267888092812,-0.0370850394195778,0.0672458516583122,-0.000988577694093689
20,20,-0.221780166502684,0.179256221939057,0.946513268611891,0.00287189174556178,0.00704860960447838,-0.0142902959371123,-0.0125489578561764,0.074566173688442,-0.0338126970365637
21,21,-0.221767194916001,0.179351620089671,0.946501309618024,0.00270557395805709,0.0071828831618442,-0.0143454519285861,-0.00871256545695234,0.0763795426028967,0.00735067193726039
22,22,-0.221755778816521,0.17944278750042,0.946489715443374,0.00264635189577232,0.00711921381462374,-0.0143911558956615,-0.00547720571544033,0.102129929733356,-0.0233604250045182
23,23,-0.221744867001187,0.179530569755332,0.946478354619981,0.00250045795383154,0.0070582506891833,-0.0144107659028868,0.0063702264666938,0.114292087247739,-0.0178078276910345
24,24,-0.221733408755105,0.179615812351485,0.946467095691768,0.00187813014297729,0.00720732386944394,-0.0144479101246528,0.00779852851292027,0.0687815257465584,0.0264086256658983
25,25,-0.221720353743298,0.179699360695329,0.946455807184782,0.00188557435117493,0.00757272433727789,-0.0144584986436639,-0.0308521614959908,0.0649748961932833,0.0081963470170956
26,26,-0.221705505351319,0.179781851513349,0.946444183093399,0.00158263285694157,0.0077174701175347,-0.0143894452936499,-0.0176686812242592,0.0790272694432668,0.0222435736877901
27,27,-0.221689563661585,0.179862721418685,0.94643231069183,0.00143950789810476,0.00784225082069102,-0.0142829179438403,-0.0601597670325134,0.056665854750297,-0.019343302645515
28,28,-0.221672823640903,0.179941015603744,0.946420648598091,0.0014152774835934,0.00772611433669857,-0.0141469106059191,-0.0330454355553548,0.0825909350000286,-8.26841229835495e-05
29,29,-0.221655580261254,0.18001577927575,0.946409655639714,0.00137412932931725,0.00767841791519077,-0.0140200973586821,-0.0343490285227256,0.0716746592598329,0.00250439985938256
30,30,-0.221638128501222,0.180086057658879,0.94639979082652,0.001520672947629,0.007585545519661,-0.0138523799605492,-0.0493867614704626,0.0756131067457271,0.00200858171488286
31,31,-0.221621298161959,0.180149927998517,0.94639105681937,0.00154847234093031,0.00736680269108094,-0.013738517073722,-0.00830096805488794,0.0904944015294599,-0.0226855498766831
32,32,-0.221604892453699,0.18020802702585,0.946383147845645,0.0015275029467603,0.00692158267273839,-0.013644803336921,-0.0363651178881943,0.0891514179993075,0.00724321805334122
33,33,-0.221587666514229,0.180263239187395,0.946376060333993,0.00133444417589556,0.00634323961221028,-0.0135166905990607,-0.0447311588833215,0.0625638645797151,-0.0242258790278637
34,34,-0.221568375529356,0.180318448901699,0.946369790618775,0.001288269568604,0.00604194786673955,-0.0133737413964425,-0.044916344253133,0.0713994804597068,0.0165101107345848
35,35,-0.221545774721436,0.180376540558936,0.946364334961762,0.00136655440138321,0.00568290228251799,-0.0131614897263746,-0.0146651595382458,0.0740993750637388,-0.015322930300787
36,36,-0.221518484382742,0.180438425066134,0.946360082927219,0.00144058368707009,0.00580876613995815,-0.0128175154002937,-0.0160175602515951,0.0399575723761567,0.015213352539232
37,37,-0.221487334342952,0.180502179599991,0.946357037099595,0.00187835162354198,0.00626364275532075,-0.0123647564640823,-0.0412878635959602,0.0703332295514478,0.014239207034469
38,38,-0.221454394141579,0.180566437898333,0.946354613223538,0.00216418702618329,0.00681360163989611,-0.0118874050010535,-0.042747881771468,0.0877572665021634,0.0128120307237456
39,39,-0.221421733323449,0.180629833679051,0.946352226971103,0.00251422080499255,0.0074152054336946,-0.0114514904614798,-0.0235740144993175,0.0918102483306177,0.000875671145883473
40,40,-0.221391421448359,0.180691000643873,0.946349293929598,0.00250664078565903,0.00778823328037888,-0.0111582505804541,-0.0256081051495719,0.0928521625360261,0.02124942919068
41,41,-0.221363790882091,0.180749272804571,0.946345900331806,0.00276805411362079,0.00763708764730298,-0.0110332483052581,-0.0168627773482587,0.162438484018946,-0.0191425464149044
42,42,-0.221337461903293,0.180805560994248,0.946342435770039,0.00267713490546225,0.00779527980271978,-0.0110461606904006,-0.00872614000980824,0.0650054062807117,-0.0236233652815779
43,43,-0.221311935939772,0.180860864137598,0.946338770805772,0.00278949939466081,0.00778500826493491,-0.0111319978963624,0.00623705326715331,0.093487929589328,-0.0231050966083155
44,44,-0.221286714404694,0.180916181189679,0.946334775990701,0.00271832094764547,0.00767865328767487,-0.0111458548917968,-0.0121388291689486,0.0728783467538191,-0.0289798514294887
45,45,-0.221261298691984,0.180972511149192,0.946330321867344,0.00249155402606205,0.00775841516139091,-0.0110722958864406,-0.00208800484745458,0.0546212073693304,-0.0107361703294451
46,46,-0.221235714293584,0.181030775860228,0.946325180048964,0.00229983940883479,0.00792951279319115,-0.010836410896291,-0.0369989164241848,0.0709493624190705,-0.00736110998963047
47,47,-0.221210293537586,0.181090309405447,0.946319436820469,0.0020438951666249,0.00789751324492794,-0.0105153798115655,-0.0296469056851238,0.0904279459722191,0.00852688913238706
48,48,-0.221184998084299,0.181149729164839,0.946313434717297,0.00191554797667176,0.0078775556826094,-0.0101098429630216,-0.0644299971202096,0.129878949621958,-0.012286805186089
49,49,-0.221159789645602,0.181207652476845,0.946307516266491,0.00177706441916199,0.00820211595550695,-0.00980093473024923,-0.00612771364911795,0.0861209359438892,0.00406658815144866
50,50,-0.221134629978822,0.181262696624423,0.946302023996002,0.00153991767395604,0.00808083652442007,-0.00956550425487959,-0.0289410393620063,0.0837972735911149,0.0270822288683939
51,51,-0.221109666960176,0.181312909999253,0.946297153452648,0.00159357289235385,0.00814658552908792,-0.00948223644080191,-0.00482142226664169,0.0946740886848029,0.0137327496977004
52,52,-0.221084926093295,0.181359214368891,0.946292676304321,0.00180957264541116,0.00810006473848368,-0.0094635728414573,-0.00817773681082411,0.055521789244267,0.000450981271406121
53,53,-0.221060185595274,0.181404537059583,0.946288299273481,0.00204959585137648,0.00824015694129409,-0.00950162495579456,-0.0114317644437245,0.0833587339561948,-0.0325536004035723
54,54,-0.221035223699828,0.18145180544928,0.946283729052871,0.0021964260968374,0.00813464893589681,-0.0094907445411665,-0.0324403386299777,0.105789319037265,-0.035442091022463
55,55,-0.221009818661418,0.181503946968905,0.946278672299402,0.00222350198720348,0.00810010709434614,-0.00938618864173913,-0.0353794966856779,0.047279942635972,-0.0464976330841216
56,56,-0.220985645134519,0.181564059473728,0.946272220479183,0.00225972865773129,0.00779127348044274,-0.00918006780116233,-0.0194356774469883,0.125810036563363,-0.0170033071673964
57,57,-0.220962850926312,0.181630191393638,0.94626456916655,0.00214465392436955,0.00798353079721942,-0.00894049983611769,-0.0150952414772369,0.0272379503212724,0.0116976008977252
58,58,-0.220938924060157,0.181697696034277,0.946257081212365,0.00213156628119533,0.00778654012057301,-0.00860850512603883,-0.0372268206530745,0.107042673682814,-0.00535181676603769
59,59,-0.220911352608995,0.18176192667719,0.946251119489329,0.00207441107083372,0.00785633181283689,-0.00826847153901743,-0.0502182171042862,0.0621101258604446,0.00402880927237248
60,60,-0.220877624678206,0.181818236592508,0.946248046838846,0.00211516370450611,0.00796519420424136,-0.00791517686889951,-0.0567981667462694,0.0860231807731009,0.0344795993770571
61,61,-0.220836246919134,0.181863961740631,0.946248422800884,0.00222005881921342,0.00826332555581539,-0.00749614968870083,-0.066208155131179,0.0723737050022152,0.006474510824903
62,62,-0.22078889394084,0.181902199990899,0.946251338717383,0.00231033877962462,0.0083824335674008,-0.00702251436170502,-0.0628449697422595,0.0741907193954997,0.0381376905800626
63,63,-0.220737805750623,0.181936947445128,0.946255955056852,0.00234635595700768,0.00841729157690364,-0.00657146945867415,-0.0283701799023731,0.0794029751986626,0.0353776406622681
64,64,-0.220685222352473,0.181972200119445,0.94626143227653,0.00262966571403149,0.00855263774150248,-0.00617310007418758,-0.0639077964841216,0.0622470347216205,0.0149664321575589
65,65,-0.220633383747653,0.182011953939269,0.946266930862056,0.00260242613070228,0.00857660944981082,-0.00592244272271707,-0.0427647784566679,0.0638497376186743,0.0026292533457702
66,66,-0.220582178329998,0.182057227092785,0.946272616961891,0.00285498492281932,0.00840446572563061,-0.00585989759284675,-0.0475857896709721,0.0687593918804333,-0.0291890519818956
67,67,-0.220530112486497,0.182105355471953,0.946279049968247,0.00317586873318118,0.00806348611074241,-0.00597742498288405,-0.0324598426827387,0.0716905760373215,-0.0148918854650907
68,68,-0.220477353309419,0.182154811594186,0.946285980339157,0.00358127512838492,0.00773967124779897,-0.00615228011409112,-0.0198233862638794,0.0722525648707946,-0.0447930658438697
69,69,-0.220424068130712,0.182204068082302,0.946293158588609,0.00378574370546612,0.00746189715984605,-0.0062744950011933,-0.0305230325784135,0.0507324123476268,-0.0244050421373796
70,70,-0.220370424527934,0.18225159766766,0.946300335303159,0.0040151499951866,0.00730387369340152,-0.00624065494663944,-0.0381951930943323,0.0890700233852474,-0.000758348453450295
71,71,-0.220317268666897,0.18229775152298,0.946307458279211,0.00371896906947059,0.00783617418943685,-0.00601899820548222,-0.0173808764722274,0.00668284342579566,0.0304374671027833
72,72,-0.220264489054788,0.182343548073366,0.94631469370809,0.00365318053004345,0.00826816752764777,-0.00559751591436778,-0.032558516846823,0.063226839549729,-0.00107868711258178
73,73,-0.220210816836829,0.18238846089503,0.946322119832195,0.00313459700685398,0.00879658931884377,-0.0051740902074679,0.00658707102706743,0.053780231676359,0.0244189282706941
74,74,-0.220154983056754,0.182431963395997,0.946329814854387,0.00251852018748285,0.00934152110018276,-0.00479716464984538,0.0301835338686546,0.0272586997831714,0.038167840216387
75,75,-0.220095718668292,0.182473528801369,0.946337856935407,0.00250973109515762,0.00936786841976638,-0.00450889859582888,-0.0134254178522119,0.0240347508042991,0.00488348442799924
76,76,-0.220031696936598,0.182512648660808,0.946346643524453,0.00299197325307212,0.00875935415028655,-0.00437779093020708,0.00599570457391274,0.0606829205697402,0.00767917700362274
77,77,-0.219963763744131,0.182549673854779,0.946356122314013,0.00384755360010646,0.00787921601642455,-0.00429114704664729,-0.0248668410400432,0.0193294519905134,-0.0102483190300636
78,78,-0.219893908971129,0.182585366574152,0.946365696954955,0.00478201011495639,0.00680058503968508,-0.00427815532626159,-0.00376917396339272,0.0555730756632026,-0.0138340153410002
79,79,-0.219824122593411,0.182620489203679,0.946374771277955,0.00547934661189757,0.00605682012336798,-0.00429331804123271,0.00584118892337105,0.0138081575850462,-0.00969371496087144
80,80,-0.219756394685651,0.182655804325493,0.946382749287088,0.00593844277150829,0.00559779722464295,-0.00421837477289818,-0.00349074333765602,0.0490914469802298,-0.0092353473915953
81,81,-0.219691807999286,0.182690096090959,0.946389274635081,0.00576203933613265,0.0057672149962414,-0.0041512209192545,0.0373210526795792,0.031894397543676,0.00330235607856876
82,82,-0.219629035930203,0.182722856223558,0.946394745010117,0.00526729545338935,0.0063251681713442,-0.00405181543601219,0.0141293828764069,0.0359485614437207,-0.000900066271272724
83,83,-0.219566454572746,0.182755908801103,0.946399695493997,0.00457524655916242,0.00734058597990328,-0.0039299613718078,0.0196103584050363,0.0551523159733864,-0.00424923806047946
84,84,-0.219502439990296,0.182791077934691,0.946404661026418,0.00416432766268273,0.00834049836871295,-0.0037928497517844,0.0211994976539393,0.0144652742599039,-0.011286144157564
85,85,-0.219435368209437,0.182830187787414,0.946410176399421,0.00393888979946942,0.00892236564711627,-0.00367055796131898,0.0458469137182304,0.0371533537888412,0.0191612208997817
86,86,-0.219364717769313,0.182874429627662,0.946416414624261,0.00427172561073655,0.00883026634166474,-0.00349584925148481,0.0195954490453487,0.0765893619437808,-0.0132518702962112
87,87,-0.219291571376661,0.18292258762923,0.946423019093535,0.00488951745764527,0.00835027416312676,-0.00333301410448505,0.0121959545552566,0.0751084674389892,0.0223306623073958
88,88,-0.219216711212518,0.182972875268612,0.946429730118781,0.00551432516417307,0.00815088355333475,-0.00317181632761785,0.0380991388780841,0.0538089539997733,0.0210711077048599
89,89,-0.219140919358969,0.183023505897397,0.946436288113746,0.00615530782634395,0.00776204999146775,-0.00298584227158119,-0.0227184735767336,0.0711664907926932,-0.00894599494416043
90,90,-0.219064977801893,0.18307269273887,0.946442433623641,0.00651242240785554,0.00753805433848904,-0.00279421019759664,-0.0299104136486702,0.0747446990231643,0.0050636941021596
91,91,-0.21899206169048,0.183119262337897,0.946446293664126,0.00603991548405286,0.00782260445439808,-0.00264656476713457,0.00527620316202161,0.0594665995605384,-0.000345584842716776
92,92,-0.218921649566709,0.18316440613084,0.946448041852259,0.00507550686650113,0.00791510385042577,-0.00248939502783439,0.0102901132056707,0.0534355175172506,0.0186312921969937
93,93,-0.218848978356989,0.183209884283691,0.946450488196835,0.00404442327345246,0.00798515947254752,-0.00232329575189819,-0.00529747985856276,0.0603862057602921,0.00539984394782228
94,94,-0.218769284854288,0.183257456509475,0.946456441940879,0.00352465476542509,0.00803710377347455,-0.00218571124406012,-0.00875895076211762,0.0162014549017796,0.0133956335651548
95,95,-0.218677805668024,0.183308881997861,0.946468711370304,0.00362929565125027,0.00764227125441286,-0.00213329915861129,0.00173168354309251,0.0465415849050854,0.000774718352077008
96,96,-0.218572775936058,0.18336227111147,0.946481674136517,0.00529385599060787,0.00692322952810629,-0.00216765810954307,-0.0306418127307586,0.0226446854616373,-0.062054056440705
97,97,-0.218457370502125,0.183416449714916,0.946493456016719,0.00797361703113806,0.00581820421344342,-0.00233392411329416,-0.0250644837662769,0.0056910329023433,0.00326210291002648
98,98,-0.21833423538119,0.183474250024695,0.946512486451294,0.0112441902890063,0.00482194755132389,-0.00244753402953138,-0.0184647946806677,-0.00583271087355434,0.00341542893979227
99,99,-0.218206016686647,0.183538504813117,0.94654719493868,0.0140734541622924,0.00385975150204911,-0.00231944419295247,-0.0553108610649684,0.00199280961269765,-0.0163908831900559
100,100,-0.218075360845206,0.183612048004293,0.94660601139547,0.0152315384331554,0.00377302460844039,-0.00197026153831456,-0.0765615005497318,0.0232202882849564,0.00313138290496754
101,101,-0.217939556699886,0.183693377236048,0.946701488908799,0.0144620013891141,0.00426464648031754,-0.00116961781478247,-0.0865330903533068,0.103764671052192,0.0627056454558552
102,102,-0.217796840493349,0.183780607066353,0.94682800617542,0.0124693838791082,0.00637366144183687,-2.12141104302602e-05,-0.0431959332906529,0.0566648512290202,0.110616140004712
103,103,-0.217651279692673,0.183875996135756,0.946966731958462,0.00999147604672335,0.00916225727059308,0.00123522323979342,-0.0626688369172847,0.0618652449510711,0.113567463211804
104,104,-0.217506940790743,0.18398179903295,0.947098834496948,0.00753739548765976,0.0116325429573618,0.00236696468371653,-0.0867122773511114,0.070120517014302,0.0773363228425242
105,105,-0.217367888945543,0.184100265280989,0.947205481383815,0.0065039884466919,0.0132994606508207,0.00313472476694122,-0.0958693865167337,0.0788478430543425,0.0113217744539197
106,106,-0.217231130047229,0.184231672547856,0.947283188633267,0.00657142430523192,0.0144922422923525,0.00346836872887802,-0.108191146866876,0.0917667952561639,-0.0211656819773859
107,107,-0.217093950892156,0.184374514438567,0.947344509137468,0.00755891147621263,0.0151379739873665,0.00345793379065775,-0.128490999717443,0.111018646309875,-0.0438114619623445
108,108,-0.216960837829092,0.184528360543511,0.947394666000445,0.00873105866659316,0.0154836725538836,0.00329063977817533,-0.103836205189977,0.164681533490088,-0.0297405438653059
109,109,-0.21683627908019,0.184692781715319,0.947438883009298,0.00947022981733005,0.0159432455069423,0.00305289052244436,-0.0957675702547495,0.16627015739248,-0.0249104306758342
110,110,-0.21672476546525,0.184867351359272,0.94748238504591,0.00923199114080149,0.0167799498328482,0.00292218276383081,-0.0195423492215813,0.201693660764909,0.0172131102251378
111,111,-0.216625435472835,0.185053612810422,0.947525012848285,0.00840192104048382,0.0179770203749734,0.00308025869426865,-0.0172307274760779,0.23660396196206,-0.0171601344283264
112,112,-0.216535298281428,0.185251847352189,0.94756328543956,0.00692676306409375,0.0198745637908534,0.00329711505633738,0.0260695130957978,0.225899738925171,0.0284286215303193
113,113,-0.216455653697165,0.185459740314511,0.947597446510522,0.00537873330601571,0.0224268173174435,0.00351969564994805,-0.0230272115836764,0.180021022318947,0.0270707355142292
114,114,-0.216387801844072,0.185674979700462,0.947627739525768,0.00397460937625658,0.0248771227875817,0.00363453365953239,-0.0842992766230528,0.163510275140693,0.0362144744150321
115,115,-0.216333042636712,0.185895255462908,0.947654407695746,0.00257223911857933,0.026265631839363,0.0034665420790792,-0.109594187103083,0.18881003934149,0.0346838972107519
116,116,-0.216293250668409,0.186123716603409,0.947677067476489,0.00158362600371316,0.02695768861645,0.00290976101756165,-0.163537854490441,0.165002183800308,-0.00713518539256195
117,117,-0.216267565986031,0.186361911169345,0.947695562802877,0.000409977544303284,0.0270786491535767,0.0020416576211154,-0.0839091470882233,0.134001947197065,-0.0126002364924307
118,118,-0.216253184077303,0.186605125895527,0.947710476640099,-0.000406024803523418,0.027060003757986,0.00106165650673862,-0.0451978994146346,0.128750792898749,-0.0708569501495832
119,119,-0.216247297653746,0.186848643862108,0.947722389247995,-0.00086975367295635,0.0271380882019837,0.000195148210605277,-0.0668164255190161,0.129053820833768,-0.103814615952828
120,120,-0.216247096675435,0.187087744510737,0.94773187770198,-0.00168829727290168,0.0275067923355639,-0.000442749227061196,-0.0297708030980215,0.0897164737514765,-0.0905684650600972
121,121,-0.216250727973526,0.187323794109753,0.947739439502376,-0.002255289241805,0.0274149045511572,-0.000685997285033418,-0.0428930135654843,0.120441990479639,-0.0818599698719754
122,122,-0.216260064610494,0.187559939231715,0.94774469091577,-0.0036135183514201,0.0280421522071666,-0.000810508877170635,-0.0102375657716915,0.0368431253881944,-0.0113511600943446
123,123,-0.21627788361638,0.187794126496747,0.947746884353084,-0.00461271452116608,0.0279345828965686,-0.000762071406665955,-0.0884589954083389,0.0619968918154894,0.00682791156524995
124,124,-0.216306961571903,0.188024301722922,0.947745271617533,-0.00575810265299666,0.0277496770325313,-0.000709872449288174,-0.0532795974273179,0.0147208072533208,0.0689162272570168
125,125,-0.216350074575688,0.188248410084225,0.947739104067899,-0.00664840412222287,0.0276232117058324,-0.00069529448416876,-0.0712885231401258,-0.0338256455778978,0.0446791210053027
126,126,-0.216412984708589,0.188468438730774,0.947732164891404,-0.00738303981727335,0.0270896992136608,-0.000728865208793229,-0.034654104765458,-0.0425488208136722,0.0458007844692387
127,127,-0.21649383934716,0.188685756405986,0.947724953024197,-0.00831292063029466,0.0260086429158405,-0.00069461763852466,0.0015817039033619,-0.0219567964717629,0.0511705018848358
128,128,-0.216583993134669,0.188897380457892,0.947711793465966,-0.00901889185125908,0.0249915182212557,-0.000737295529070844,-0.00123271207836586,-0.0221946798363574,0.0356625717247928
129,129,-0.216674801780078,0.189100328165037,0.947687011437109,-0.00958914643402654,0.0238840940306668,-0.000815446910692785,-0.0403203103971128,0.00342487318634774,-0.00828989408247325
130,130,-0.216757621771374,0.189291616618941,0.947644932085195,-0.00973764389195321,0.0224192944194959,-0.000984214958704625,-0.0379295259557355,0.0357906170310115,-0.0201391926459128
131,131,-0.216831062531632,0.18946577613333,0.947574398771072,-0.00951178004444705,0.0209519528964824,-0.00135512165308132,-0.0388326784812264,0.0076259617132493,-0.0659501663191495
132,132,-0.216900886836506,0.189624794783585,0.947479194481233,-0.00934588599835727,0.0194815975884957,-0.00197137470202208,-0.0465734157196302,-0.0303698877946427,-0.0698980247737875
133,133,-0.216969180230566,0.189776877226589,0.947376053586392,-0.00915969111939422,0.0179865461983226,-0.00266523138352531,0.0185090937290036,-0.023458258605715,-0.0512504946603116
134,134,-0.2170380269368,0.189930229219848,0.947281711231774,-0.00918430533083325,0.0172149408627689,-0.00321577805176925,0.0721412360038248,-0.111454049907476,-0.00495258946256556
135,135,-0.217109510419815,0.190093057298198,0.94721290334214,-0.00898688533336893,0.016835493468005,-0.00340169485467066,0.049492509500759,-0.0979481178932944,0.0314860007671801
136,136,-0.217185284117899,0.190266664706641,0.947174023517604,-0.00878830895445594,0.0170597903913056,-0.00307998857081968,0.0773746598776611,-0.0588787858430898,0.0661356544160727
137,137,-0.217263955439994,0.190445583195271,0.947153914757469,-0.00830539340810289,0.0179109988336976,-0.00232668166540713,0.0517491568612084,-0.027867464028722,0.0775577312581042
138,138,-0.217343039995305,0.190627861423051,0.947145986861005,-0.0078297314599059,0.0192462391758944,-0.0014323734475552,0.0549947023170296,0.000951052649814962,0.0996765325166982
139,139,-0.217420054791952,0.190811546828636,0.947143649253171,-0.0071191852601557,0.0201116648601301,-0.000563523115205843,0.00629746238660148,0.00488917430381007,0.0760094524455317
140,140,-0.217492517949067,0.190994685897217,0.94714031125685,-0.00681239843019029,0.0202044371836165,1.38716774129231e-06,0.0265808602920725,0.0577059496151149,0.0518521185297375
141,141,-0.21756183418639,0.191181005189442,0.947136227970023,-0.00708193309414772,0.0196433349570391,0.000180915916968442,0.0548942237838258,0.0391368851973426,0.0703953886204974
142,142,-0.217629659881378,0.191371806721892,0.947135792527864,-0.00779268218362265,0.0187959094484447,0.000126833853604145,0.0786601782821148,0.0200579307961797,0.0564777348794497
143,143,-0.217693890345159,0.191561499572436,0.947138621504846,-0.00844710177671561,0.0180753222841369,-3.41931040165717e-05,0.039733196180343,-0.0416678891121094,-0.014418199571894
144,144,-0.217752419407318,0.191744492366608,0.947144331297087,-0.00909276911405593,0.0170299332578885,-0.000252600106938855,0.0458631376656866,-0.0382347348405302,-0.0143925155517957
145,145,-0.217803139358143,0.191915193506438,0.947152538072343,-0.00904673061410514,0.0161582035453607,-0.000429636548452053,0.0256382379700857,-0.0459424096252386,-0.0644549204149285
146,146,-0.217843146798846,0.192068163615934,0.947157708250991,-0.00837587776887109,0.0151428123686372,-0.000596078261524076,0.0284059750804612,-0.0603951132454372,-0.0337904204638
147,147,-0.217873844729545,0.192207130491055,0.947160096796223,-0.00696100473207716,0.0135822870294741,-0.000762957762097469,-0.075594959691167,-0.0303583716068632,-0.0194399470670419
148,148,-0.217899583311599,0.192340254680983,0.947168003583357,-0.00546817745018138,0.0120214970485521,-0.000947807555782881,-0.0785907474295362,-0.00805828399528602,-0.0361668666607589
149,149,-0.217924711919365,0.192475698118006,0.947189730030577,-0.00437895164734301,0.0107441282443074,-0.001070186366858,-0.0542050766813882,0.00813292987916333,-0.00943096579065955
150,150,-0.217953579111046,0.192621623619197,0.947233579431462,-0.00402422678719863,0.0098749025448019,-0.00101803142304362,-0.00475217933159492,-0.00542657176034708,0.0607420074876574
151,151,-0.217998978394995,0.192775282836173,0.94730805990659,-0.00397168773078357,0.0104348255192033,-0.000716906209014933,-0.0319898621043812,-0.0622298786587833,0.0639493690883468
152,152,-0.218058005953469,0.192931235845173,0.947407640063831,-0.00456090195503777,0.0110535677772541,-0.00026089787850426,0.0552990996092027,-0.0562993520455344,0.0862098476789079
153,153,-0.218111464290589,0.193093609743928,0.94751956627852,-0.00528795117838131,0.0125911522024815,0.000348395868998908,0.0207411443242116,-0.00703672011847702,0.0622438348240404
154,154,-0.218140155918964,0.193266536019657,0.947631086393877,-0.00561873860656459,0.0145485239496209,0.000997398122933201,0.065639354696357,-0.0202010375869268,0.0901862907587584
155,155,-0.21812488351649,0.193454151165827,0.947729449373115,-0.00476262867586781,0.0167993728825008,0.00175341369120013,-0.0145356556456447,0.0116574686299375,0.0278302406479051
156,156,-0.218056262502121,0.19365183192327,0.947804809003149,-0.00234601102916392,0.0187578102487675,0.00263077607112897,-0.0678078124842823,0.115608681856755,-0.0138080305101896
157,157,-0.217947083930873,0.193856829147306,0.947865670093833,0.00115079173742877,0.0200190824340261,0.00363256069102672,-0.112341932906441,0.217805541732897,-0.00338751320963381
158,158,-0.217811419271558,0.194076099680078,0.947926812250828,0.00490124056800351,0.0212074194179949,0.00462865028737692,-0.203828897454334,0.328766300982108,0.0825770317086258
159,159,-0.217663347180265,0.194316608730955,0.948003025035755,0.00713418538014594,0.0235601611969357,0.00539928810218437,-0.157766081841243,0.383683792155067,0.180827259891479
160,160,-0.217516953179103,0.194585324983158,0.948109124291348,0.00899258596374589,0.0263866362181276,0.00591419326213615,-0.263708426616902,0.451105222821375,0.18730496778824
161,161,-0.217353837381817,0.194881241687347,0.948267177249003,0.00850695876348027,0.0300231545577881,0.00634133160531093,-0.330254428893452,0.406148751283654,0.163268936420412
162,162,-0.217164627717941,0.195199717104674,0.94846739909436,0.0073228874837616,0.0349688266152076,0.00667855019254011,-0.369235342717855,0.350142321725454,0.129204237005298
163,163,-0.216976944179379,0.195542271445438,0.948676870719532,0.00599181305030777,0.0401605384205393,0.0067142648430328,-0.436105496611413,0.36812255685353,0.0201272959162212
164,164,-0.216818387264596,0.195910439777822,0.948862694365797,0.00421138838958329,0.0462877492978753,0.00599500455116141,-0.365785852863021,0.327802891680205,-0.0541097809005736
165,165,-0.216716539254618,0.19630578540637,0.948992029309979,0.00246013659311085,0.0513477555237777,0.00440307913519085,-0.323566779799616,0.394181163187847,-0.146629543895946
166,166,-0.216689935084096,0.196705562467704,0.949064448937422,0.000406422840633286,0.0562803720190301,0.00132040849470093,-0.239617677783075,0.337083217435796,-0.24778710067221
167,167,-0.216720167992797,0.197108833730482,0.949102298631435,-0.00236138978241146,0.0601319768515637,-0.00296173401711852,-0.128634756103457,0.370527901894258,-0.32856955327784
168,168,-0.216779404134402,0.197549863478306,0.949106917641147,-0.00432340142868301,0.0631729720497734,-0.00752204174690457,-0.188821211953788,0.374191750543388,-0.450536435601328
169,169,-0.21683980608496,0.198062838148712,0.949079540638813,-0.00642593339724064,0.0670435858605514,-0.0117226446411347,-0.164158129630312,0.395963096211692,-0.354679013254628
170,170,-0.216873530870644,0.198681854849865,0.949021287074453,-0.00877629559921289,0.0723179129142339,-0.0145622367227461,-0.219382521532573,0.522049260096695,-0.274614730273763
171,171,-0.216902760271528,0.199433149811615,0.948941050000863,-0.0116621806756147,0.0789214362470786,-0.0156320282779933,-0.196206312051173,0.625518671940201,-0.149025018866909
172,172,-0.216946053088466,0.200293905301622,0.94883854820959,-0.0151679010381177,0.0872672495414288,-0.0155194789992386,-0.138697703318257,0.71767824174277,-0.0543740149259302
173,173,-0.216970141698395,0.20122459255702,0.948701120469474,-0.0187575283328494,0.0965148321978094,-0.0149463595911593,-0.06552413675419,0.819911673764904,0.0546439136793196
174,174,-0.216941770751455,0.202185715309396,0.948516178730455,-0.0207891021796699,0.10506641393275,-0.0145820241220841,-0.153909028648679,0.825750817019833,0.0393423247123474
175,175,-0.216827699554544,0.20313781506139,0.948271209641407,-0.0216473323662875,0.111088032729915,-0.0152491298301711,-0.138655173970151,0.783592125817358,0.0255537585619384
176,176,-0.216609082179862,0.204097573162067,0.947926616514407,-0.0186782540837567,0.113510571016362,-0.0173747044049927,-0.317431297044598,0.742711107539123,-0.107249995006267
177,177,-0.216308111098754,0.205091272034732,0.947491536905888,-0.0137968065022517,0.113647239869271,-0.0206088717559457,-0.332554479580567,0.600016505284152,-0.133115948989066
178,178,-0.215953172750709,0.206093924317816,0.947026798529169,-0.00759929015694371,0.112331331488069,-0.0239865969505895,-0.396901232216836,0.595410488918514,-0.16984864239692
179,179,-0.215572741813982,0.207080607610446,0.946593486311115,-0.00120507830157457,0.109943712309973,-0.0265225957737379,-0.385132735741481,0.36242372309307,-0.222277726522195
180,180,-0.215195403735506,0.208026469975691,0.94625298789258,0.00380469842210051,0.107679827188086,-0.0274421850967724,-0.321709750500973,0.255434283602583,-0.206942893230192
181,181,-0.214800739579312,0.208871287671158,0.946013790354207,0.00637257556015561,0.104683283283336,-0.0264054721297798,-0.276105852958877,0.0274654476230465,-0.0396765054339648
182,182,-0.214370045837748,0.20963172320774,0.945836804048866,0.00759992226981335,0.0987031844613809,-0.0237050977792442,-0.333295429718479,-0.00453300320782213,0.18480532906132
183,183,-0.213934692490112,0.210398414940313,0.945712416002007,0.00868887427247722,0.0915071102312422,-0.0199477564437116,-0.52365874178288,-0.0282058724672373,0.327940603093804
184,184,-0.213526229676011,0.211262170051656,0.94563116151451,0.010776039622297,0.0849046884903664,-0.015886669678062,-0.484434652386179,0.101943843672708,0.500881397366832
185,185,-0.21317642716422,0.21231400080034,0.945583842547987,0.0147690688545543,0.0805482330303648,-0.0120290342160195,-0.325626950539521,0.273597994099454,0.623463779228282
186,186,-0.21288327638774,0.213634240237253,0.945573683738657,0.0236014295888846,0.0825911791205205,-0.00880266016152215,-0.19792698937289,0.305636199248666,0.568793467292114
187,187,-0.212627213316818,0.215163607049249,0.945611549847172,0.0351636777336236,0.0907348527563743,-0.00579393970751392,-0.0316615179300069,0.328468510068216,0.487354789319527
188,188,-0.212413487887275,0.216782996751885,0.945697966200775,0.0447650186416448,0.0988557593703822,-0.00285578407272855,0.184832803809385,0.441973524983817,0.356639829295439
189,189,-0.212246677516413,0.218371903492415,0.94583025310939,0.0510176956624452,0.104902108015361,0.000616758969059318,0.201974951677568,0.317421472437543,0.029100134392549
190,190,-0.212130457883334,0.2198083771362,0.946002424605895,0.0510864624085182,0.105902922180624,0.00456576059129824,0.15699181097156,0.0948650538167298,-0.119842632337275
191,191,-0.212060912220212,0.221058251166908,0.946205472013558,0.0446327222848021,0.102181376920489,0.00916343095804517,-0.0333147398990453,-0.289136924027662,-0.293548156611039
192,192,-0.212035710852591,0.222200792138542,0.946441106705803,0.0327141756515599,0.0960666119446149,0.0145545477050884,-0.0146344598775709,-0.59589615653072,-0.238571103662652
193,193,-0.212059825443488,0.223283751132418,0.946717107558429,0.0193678132747382,0.0845709142025453,0.0227153710106286,0.2651127516405,-0.718828235951128,-0.0247073856326529
194,194,-0.212137866864341,0.224355561028784,0.947041199288506,0.00209719319846552,0.0724252699100737,0.0317519485527797,0.837068213880944,-0.803944933295856,0.653520086885585
195,195,-0.212274157570307,0.225465286305793,0.947421045867067,-0.0166128792689528,0.0662836210568017,0.0407947197123653,1.1628429269097,-0.921412081622471,1.34431142737352
196,196,-0.21251177080932,0.226627141475044,0.947866812115213,-0.0339190613453928,0.0701102266339599,0.0529167676864074,0.880399265758284,-1.01515957954197,1.04779567572485
197,197,-0.212846986715826,0.227807879825079,0.94837135142805,-0.0543559378527193,0.0782015920433779,0.067480282389642,1.08899698256928,-1.09243131485139,0.946612110710559
198,198,-0.213213799091292,0.228986364373906,0.948916490907705,-0.072992278945308,0.0889105508716278,0.0823301165776787,0.840925895588295,-1.12432266375991,0.751800848581543
199,199,-0.213546230840391,0.230142159461941,0.949484293758604,-0.0846745291805986,0.0985574501205095,0.0952457666584048,0.408471523053009,-1.08718308714722,0.595983129929974
200,200,-0.213778317916726,0.231255492557464,0.950057031340656,-0.0876101521576988,0.104629259024978,0.103406574633273,-0.0538350291978233,-0.953730953867066,0.542713621329583
201,201,-0.213883474313819,0.23234056813992,0.950652388157919,-0.0814404431471894,0.10690838596464,0.104899129618927,-0.532908526753066,-0.802843451337807,0.102230073448907
202,202,-0.21390508784733,0.233412189305608,0.95128121433019,-0.0696461037919318,0.106582117671142,0.101015106705797,-0.365463648700784,-0.540300913578657,-0.0572035906004113
203,203,-0.213882137653424,0.23445135980817,0.951915552952361,-0.0554695030673439,0.104610324474532,0.0938781938496814,-0.370587746337528,-0.364454129970899,-0.340476725936246
204,204,-0.213853564067672,0.23543823733197,0.952527253289759,-0.0423230488325362,0.100997667501136,0.0859569578183766,-0.17627071955009,-0.31456859462834,-0.607991906052127
205,205,-0.213858260368,0.236352184766176,0.953087994540039,-0.0355250067717632,0.0963946999796735,0.078993805179595,0.338652031747741,-0.30191977211581,-0.491289353348376
206,206,-0.213897681632565,0.237209897796797,0.953594779909136,-0.0334683685603051,0.0888134408559112,0.0736808918874084,0.496817864519458,-0.309971446024943,-0.499288572633043
207,207,-0.213945398244145,0.238024555456829,0.954065455848535,-0.0328624549207304,0.0800792088197982,0.0686729005790361,0.420545361097949,-0.343911491309333,-0.419199250485951
208,208,-0.213998505971269,0.238769877735844,0.954502997906519,-0.0314840584659591,0.0714944135521765,0.0640144165798198,0.226035465142544,-0.425072053626388,-0.344374011220517
209,209,-0.214054151403381,0.239419779531383,0.954910434913906,-0.0295179702152687,0.0641078629033766,0.0589020554519749,0.148398382188819,-0.535711358171732,-0.268942749227036
210,210,-0.214109510960754,0.239948342414573,0.955290805569336,-0.0256850581671756,0.0564703175186189,0.0537003847698983,0.0758591898900344,-0.514982670682952,-0.299712809763745
211,211,-0.214182994071333,0.240344518853665,0.955643224096446,-0.0203889207382016,0.0476515010615054,0.0487502000953763,0.0278772827923547,-0.461057658041945,-0.326431648197958
212,212,-0.214276260885183,0.240625625188227,0.955965193555997,-0.0145820575710465,0.0372915053404977,0.0440529711828119,0.0428652647917507,-0.404723039447335,-0.394126213738373
213,213,-0.214361308470874,0.240808358007288,0.956257298299506,-0.00918327142482072,0.0272652820897601,0.0390784269375675,0.104701914408476,-0.423813299324577,-0.373312754778946
214,214,-0.214410066349403,0.24090938626213,0.9565200762846,-0.00427186059027712,0.0173110194752039,0.0338812753424577,0.18667194108752,-0.335399336287313,-0.413815507865931
215,215,-0.21439442518145,0.240945369597877,0.956754045452577,-0.000144129364734643,0.00884196480483897,0.0280315066895912,0.228200089574497,-0.30947812830232,-0.419322416954744
216,216,-0.214309611454488,0.240906928028295,0.956968789519511,0.00429001678130467,0.00230982970312136,0.0216298236289706,0.245349191664103,-0.225502609553639,-1.17285725886042
217,217,-0.214174132163096,0.240782966565433,0.95716370455689,0.00973798473104821,-0.00318508973230127,0.0145101529369018,0.0785324816365394,-0.27621827260967,-1.70505468078607
218,218,-0.213994822267747,0.240587600669163,0.957324024958644,0.0156186711118665,-0.00867195489741619,0.00739903905834915,0.0892919386129852,-0.339024689774894,-1.76030404375783
219,219,-0.213778579013057,0.240334975871044,0.957434999024063,0.0205607985053529,-0.014385933950639,2.10596109547251e-05,0.189713227049096,-0.35794582653529,-1.41535426042264
220,220,-0.213532392102573,0.240039252428861,0.957481941053612,0.0257776044545947,-0.0209596082661317,-0.00691922157904179,0.183821084225616,-0.372568987032061,-0.726696262544468
221,221,-0.213249072026918,0.239718436222674,0.957463077866068,0.0310256940523489,-0.0273683722876199,-0.0139933604822751,0.261099397010785,-0.376092717715711,-0.768186343910551
222,222,-0.212924262950417,0.239363276983732,0.957388528322635,0.0369457032936672,-0.0326652423495838,-0.0211887108398626,0.257399147592419,-0.541367706756488,-0.788408675534108
223,223,-0.212569337896349,0.23894699407485,0.957261612595199,0.0417810218910675,-0.0381234101078887,-0.0284541508132789,0.347866334189059,-0.595918390865617,-0.701830621586068
224,224,-0.212195707290071,0.238442681379771,0.957085739935429,0.0454767901342541,-0.0438101104745862,-0.0352091608967068,0.357314537809504,-0.724521583873338,-0.560776506895191
225,225,-0.211814814756136,0.237823247557563,0.956864396284105,0.0478171392074744,-0.0512456589138564,-0.0413194772710417,0.289591129019717,-0.657224051913173,-0.549113421279834
226,226,-0.211409686794882,0.237081249825478,0.95659331973816,0.0487281608266804,-0.0604687392288387,-0.046315974664444,0.124258012721701,-0.64877156285536,-1.26282279939898
227,227,-0.210973561438776,0.236234354598108,0.956271457013699,0.0478957323404405,-0.0707906681556147,-0.0507033253636866,0.0375397663606406,-0.625090685182528,-1.58848012400766
228,228,-0.210533181220151,0.235293021727593,0.955907161225528,0.0458737141463425,-0.0817197881969174,-0.0544492042254058,0.0900473077087023,-0.567391079534165,-1.57585246886085
229,229,-0.210115192873666,0.234267829240962,0.95550875669754,0.0426463935599289,-0.0926439769423788,-0.0578451837395536,0.238702952699562,-0.564431765480282,-1.20037153151083
230,230,-0.209746150791588,0.233169536092342,0.955084544466479,0.0395566727644593,-0.101479785297883,-0.0612757601548893,0.468222995337081,-0.571001752481464,-0.393997651075232
231,231,-0.209442058722763,0.232011111677381,0.954633741904807,0.0350381098426667,-0.107593848377948,-0.0641586802156924,0.649642183838762,-0.518711995858452,-0.484300137495432
232,232,-0.209186276132534,0.230785084303342,0.954152942500447,0.0311744561190907,-0.113861297255825,-0.0667921506475429,0.774243079836523,-0.387013000657357,-0.613518145082901
233,233,-0.20895620303037,0.229471854593273,0.953646318394868,0.0292031425887487,-0.12143954094651,-0.069227303255156,0.694637058957918,-0.333257564185786,-0.69618586446662
234,234,-0.208728958347189,0.228051958116256,0.953117689237666,0.0302812444577084,-0.129315096379321,-0.0716798176278483,0.398720075615504,-0.459282849386931,-0.725887360992647
235,235,-0.208481323212011,0.226506067416616,0.95257052594131,0.0340133174304592,-0.138892859766243,-0.0746796500017432,0.292284235188062,-0.586462178000634,-0.446269930727192
236,236,-0.208234155147381,0.224830439886858,0.95198437075713,0.0355535766980387,-0.14977681732432,-0.0768266084666652,0.240247182628142,-0.659658721202499,-0.17408870277891
237,237,-0.208003614521538,0.223038007551225,0.951359297718914,0.0371430599486812,-0.161906723024855,-0.0793138841969319,0.436069062179214,-0.729679640083241,0.0201512571051726
238,238,-0.207758849143435,0.221134770899843,0.950728802998986,0.0384542271858549,-0.174538314858881,-0.0799150710922165,0.26129825145666,-0.975707321588823,0.0429303341252382
239,239,-0.207468549037716,0.21912697654421,0.950125534704083,0.0375032523667708,-0.188769918209328,-0.0786177971450187,0.0897507710993626,-0.924457838137907,-0.470662830167425
240,240,-0.207100991904799,0.217021120940305,0.949581219814594,0.0328079706616991,-0.200489567585499,-0.0767331853003864,0.102805086907178,-0.855132707239154,-0.330907832312942
241,241,-0.206559630906058,0.214758328823244,0.949086657060764,0.0303894479223039,-0.215574771854656,-0.0720660868869604,0.014400908636225,-0.760451510703269,-0.0910916430653116
242,242,-0.205865664614831,0.212335286029076,0.948622594162586,0.0296878077122053,-0.232513281227562,-0.0651855498761713,-0.13522898289431,-0.510723751169957,-0.410495954286202
243,243,-0.205163089291289,0.20984171487507,0.948202980709042,0.032397745615942,-0.244728863218854,-0.0581650096653371,-0.578099410127944,-0.637842996688194,0.194385516418477
244,244,-0.204595041417928,0.207366824892258,0.947839012805399,0.0334214618084384,-0.250109282434005,-0.0497999168676264,-0.459429568868145,-0.612106844224589,0.636001504656093
245,245,-0.204303948742774,0.204999296278549,0.947539406520747,0.0292594306100298,-0.244440440500151,-0.0405593352546243,-0.28845154512307,-0.29319847901655,1.36250655817973
246,246,-0.20434200626287,0.202732491358548,0.947319734476055,0.0216121816847415,-0.23127238747733,-0.0287681021300794,-0.139371821276656,-0.0144826137003041,1.57109338676174
247,247,-0.20461281055783,0.200507166176297,0.94717013210925,0.0104492586986011,-0.210474323533287,-0.0144095695839573,-0.171875651995179,0.223951808923179,1.49624424503455
248,248,-0.205035797014711,0.198332729979193,0.947060097492592,-0.00361839786903304,-0.185678006707921,0.000275466594612913,-0.103214129164207,0.428014290117055,1.22353359062521
249,249,-0.205530659455276,0.196218557381048,0.946959488306279,-0.0185271059825353,-0.165584652819561,0.0122451219251086,-0.032754614486807,0.615722150350187,0.80691106802491
250,250,-0.206017275280763,0.194173999332155,0.946838369450197,-0.0292023340694719,-0.15420465614727,0.018634511525069,0.0973423847564548,0.607757380601313,0.328962144498162
251,251,-0.206572108677247,0.192247626642161,0.946682320065359,-0.0372112866170421,-0.150878763732307,0.0178823909579739,-0.0373273122360226,0.420250195662105,-0.0686540895462421
252,252,-0.207248319151062,0.190433023427293,0.946509138276337,-0.0444372855539372,-0.154000653892387,0.0116991603249034,-0.121625194959764,0.259824562304982,-0.383315945936807
253,253,-0.207931028418185,0.188657084257114,0.946338035183565,-0.0501381565264752,-0.160164708487258,0.00277708787404956,-0.184194395022547,0.0304070200064198,-0.632360506492252
254,254,-0.208505456244369,0.186846775111909,0.946188892017293,-0.055301870862749,-0.167256164881026,-0.00576861529040312,-0.114345506327564,-0.163843326577952,-0.643203182342487
255,255,-0.208856917397118,0.184929105684239,0.946082155763795,-0.058433073497453,-0.173275569172248,-0.010595368440605,-0.212802851756956,-0.41491572126356,-0.528488779698487
256,256,-0.208923673923424,0.182865488700607,0.946033154289213,-0.0571366263506608,-0.179698599139705,-0.0111111452993732,-0.144741137767457,-0.5620878481069,-0.308699105811817
257,257,-0.20878232735003,0.1807045848187,0.946028693821175,-0.0497293445663185,-0.188919188273397,-0.00921168083003226,-0.109039222087832,-0.580517635511861,-0.118646631735797
258,258,-0.208525797185386,0.178504028921522,0.946046601642036,-0.0394006329078795,-0.198095082763083,-0.00572290547285243,0.0539958293428322,-0.419281771109907,0.188208099468912
259,259,-0.208246994358218,0.176321208810955,0.94606417026707,-0.0287440878267936,-0.204664854245348,-0.00162875000541928,0.315327546228383,-0.275055411465661,0.552932897550085
260,260,-0.208038830478061,0.174213353738601,0.946058177959365,-0.0201064085118009,-0.207776591520782,0.00207231263908126,0.392813131654706,0.0402857737291182,0.647766729851818
261,261,-0.207917055095772,0.172220675661863,0.946048220602232,-0.0138470944966602,-0.204052893383747,0.00650001870706538,0.472014843666481,0.139777172498657,0.694656780005062
262,262,-0.207820011434518,0.170304304211478,0.946049065242973,-0.00832314350883254,-0.193068277875704,0.0122534709081505,0.519704935871488,0.0962387576172646,0.694348080800233
263,263,-0.207724532536013,0.168403172456312,0.94603019044263,-0.00324191035020391,-0.179475797175084,0.0176138334736093,0.426444560007855,0.155627368215078,0.380359179437681
264,264,-0.207607457535081,0.166456659277989,0.945961432152678,0.00103525682446822,-0.16768884021547,0.0207770006816457,0.19488407425614,0.230290541376604,0.0534501894000236
265,265,-0.207445641253763,0.164404586996927,0.945813082533375,0.00733961578611273,-0.164342618287052,0.0199386871248602,-0.232932575760262,0.331323503916666,-0.412851913058818
266,266,-0.207241472066363,0.162187350567008,0.945565678368997,0.0123583784818978,-0.169515736357407,0.0126283355063145,-0.283074061448214,0.34017011278084,-0.86010236652984
267,267,-0.207011047153196,0.159845911577423,0.945239897783773,0.014895849798179,-0.178762315886775,0.000437223369053946,-0.33743155540808,0.136327462330749,-0.933660354816243
268,268,-0.206751477890133,0.15747133362884,0.944866792365973,0.0157679493854143,-0.190136850941788,-0.0134553683641085,-0.457662949108269,0.00436981666287696,-1.01215003279005
269,269,-0.206459412806134,0.155154679760205,0.944477618665354,0.0157122408025352,-0.200227104573615,-0.0258596314314449,-0.442873948637987,0.00942076826863586,-0.950461757374991
270,270,-0.206131079855761,0.152986971667893,0.944103938281947,0.0148238582127132,-0.206031527270984,-0.0333523698642559,-0.352958223207625,0.14214959321143,-0.727488852877383
271,271,-0.205723980248587,0.150976315049794,0.943714964714649,0.0122053652678961,-0.204034914315037,-0.0352680444934791,-0.249319334912641,0.230729347585755,-0.491393052659187
272,272,-0.205240436060362,0.149063550327376,0.943292158230116,0.00564635642238713,-0.198207421521007,-0.0336794835350486,-0.225516730154063,0.388429872979779,0.00104393026512078
273,273,-0.204743888541898,0.147237958092188,0.942886134462511,-0.00118840250824197,-0.191452113191438,-0.0289341247105232,-0.5499055655608,0.48183442761537,0.44152893433807
274,274,-0.204298107903407,0.14548755907312,0.942548018512913,-0.0067072266682792,-0.183904265098873,-0.0220195595874395,-0.670160691228413,0.508748095581387,1.00016286833061
275,275,-0.203967140222877,0.143798800314062,0.942329522817067,-0.00822260532130758,-0.175431499309446,-0.0138003119541666,-0.793307770158802,0.412692067416541,1.30876944457487
276,276,-0.203782759301575,0.142164274931705,0.942214170433465,-0.0049903950052815,-0.166476498155662,-0.00341702108936933,-0.622414965450849,0.467478194453506,1.53028590060334
277,277,-0.203703608928221,0.140589155880569,0.94217452763399,0.00110955896380025,-0.157793155007119,0.00951740428803297,-0.618100695393095,0.420158491601751,1.55289675905249
278,278,-0.203684009610085,0.139078433130563,0.942244447337509,0.00757789054365087,-0.148375078017821,0.0233470753472315,-0.408302354477092,0.378572848049386,1.24351250464055
279,279,-0.203677883311316,0.137639033208039,0.94245473748512,0.0103639273102601,-0.136497479635355,0.0364839979592135,-0.0396668880259781,0.365956967795458,0.998838835179806
280,280,-0.203638616457738,0.136280162765681,0.942832905738069,0.00828797025796738,-0.121808389879046,0.0478057961713565,0.0833378577760722,0.227592872046367,0.681726252029771
281,281,-0.2035347342156,0.135024953862281,0.943418941961528,-0.000786333038749324,-0.106310066479129,0.0570001303913472,0.178835140093036,0.256054331445516,0.418865304416492
282,282,-0.203398216154803,0.133866979982727,0.944195209148266,-0.0131570324245754,-0.0919262242991847,0.0660482491148051,0.124475691567218,0.526933277358217,0.319167790381654
283,283,-0.203277097141597,0.132773187579415,0.945099709100418,-0.0313284553505178,-0.0788748156239438,0.0741076800911292,0.351248054588756,0.740524633793082,0.436008211979705
284,284,-0.203219250555918,0.131710999391494,0.946069523234363,-0.0516752072090347,-0.0675202241424275,0.0815312996142254,0.151568988850969,0.770268026629431,0.333590133320698
285,285,-0.203272385534598,0.130648360601222,0.947040836927317,-0.0697174877809337,-0.0643779367937964,0.0882518387426745,0.140462023181966,1.19587620285725,0.556601181711517
286,286,-0.203488232197896,0.129609035033423,0.948014023857438,-0.0822010862680458,-0.0615575992738357,0.0988672803762555,0.113546028028928,1.32106703858334,0.576343238441618
287,287,-0.203835839843165,0.128616242256628,0.949030579926841,-0.0940792051932187,-0.0641449870325898,0.11089846616554,0.175465143863316,1.47075561480894,0.572438919168125
288,288,-0.204238417520113,0.127636462308846,0.950087448021702,-0.104724045761308,-0.0678650321885451,0.122183151516085,0.162742677806256,1.44541920872988,0.715137125848454
289,289,-0.204618715867976,0.126634657437758,0.95118095018059,-0.113871948371624,-0.0665203014318764,0.131903488664625,0.232478370437581,1.26626163719171,0.634610482799129
290,290,-0.204899022299757,0.125574185228158,0.95230675272137,-0.116126820058997,-0.0701062951664674,0.138115531259403,0.0252172691155862,1.40273159195845,0.593846158231993
291,291,-0.205080119868757,0.124413170150392,0.953490201695868,-0.106793180254895,-0.0794606594194793,0.140366759847788,-0.162193182968394,1.23722956247064,0.391460005184768
292,292,-0.205213620849548,0.12317282764439,0.954732246819915,-0.0881130677288049,-0.089099685045485,0.139989042120369,-0.291556035181457,0.910196128838752,0.110190325429374
293,293,-0.205297574139521,0.121911471041977,0.955991182793239,-0.0657230727923326,-0.0964683035121155,0.137556457215611,-0.290298894158148,0.608620996812855,-0.149010707211308
294,294,-0.205329739998951,0.12068959013743,0.957224898799559,-0.0448162470810235,-0.101074581849596,0.134914893129157,-0.289320329903786,0.38421683856075,-0.280978307615991
295,295,-0.205307507259362,0.119569808682687,0.958390975697587,-0.0282237029142863,-0.098014035463451,0.133504327925856,-0.266323727088832,0.180916555178741,-0.708512170693245
296,296,-0.205201620778163,0.118552563616743,0.959489703772446,-0.01869834303627,-0.089714913646218,0.131640819009367,-0.0397960632271052,0.140066080068999,-0.684864232795124
297,297,-0.205013212116002,0.117598187543713,0.960547379577918,-0.0113236171115987,-0.0786401133681226,0.128527454585883,0.0243458619248463,0.0847598837923239,-0.729920012909549
298,298,-0.204784238562803,0.116710286092073,0.961559661034724,-0.00806690451545288,-0.0725371839186212,0.121138411877324,0.251597615324854,0.323091581940558,-0.462000626787959
299,299,-0.204555706777957,0.115892051845811,0.962521367004547,-0.00580530095253048,-0.0715731981178735,0.11136373332393,0.226372451951775,0.663493259095342,-0.319444361978826
300,300,-0.2043678455303,0.115146352531596,0.96342669276748,-0.00358465525714067,-0.0720300997591987,0.101624184142122,0.210363459522428,0.630366131587936,-0.32578805873761
301,301,-0.204229763291167,0.114477566219247,0.964296903902753,0.00108117989467513,-0.070783105470445,0.0931993887579632,0.0608974669976161,0.51702258907671,-0.557160252000748
302,302,-0.204112115791375,0.113884631921459,0.965132986860308,0.00763630666266578,-0.0685255992373082,0.0851785468182844,0.197161088723073,0.37906721327899,-0.692940643961224
303,303,-0.203997137231891,0.113361989046191,0.96589865423473,0.0147819944329818,-0.0644052264609001,0.0767377093171031,0.197793550062172,0.257622032270523,-0.81760778888798
304,304,-0.203867106335998,0.112903958055329,0.966557864323221,0.0215978005870024,-0.0580939434404066,0.0687231131556498,0.0812894528673224,0.102721675516848,-0.967274936591621
305,305,-0.203704317954072,0.112504753574851,0.967074751677608,0.0275757404869073,-0.0523008449246027,0.0595793241716355,-0.203997579838369,0.115959257835963,-1.18774837912551
306,306,-0.203491414011629,0.112156530226269,0.967444786436668,0.0308241846441868,-0.0466374442563001,0.0481774387327262,0.0289888563875765,0.140981132812828,-1.15470042976522
307,307,-0.203238870196012,0.111863597494326,0.967690961140982,0.0320850694310721,-0.0423968149114474,0.0350321990486807,0.039031164718125,0.23969583928823,-1.09036014819552
308,308,-0.202970955514215,0.111638412014463,0.967818950767335,0.0321125278145147,-0.0366237384124774,0.0214001640681686,0.0664986480247717,0.166296472877202,-1.18744769890742
309,309,-0.202712175097749,0.111493447589587,0.967834566567919,0.031788302879625,-0.0310922204114787,0.00786963377532772,0.048769639301566,0.176571025426934,-1.31213263351152
310,310,-0.20248723512572,0.111441096313102,0.967743741250613,0.0302002674914056,-0.0254040903209091,-0.00469808918734073,0.099057680172733,0.194851991644869,-1.27448174008763
311,311,-0.202334967821012,0.111488446271228,0.967532074816219,0.0276482334746813,-0.0181325305078901,-0.0157697539372635,-0.0331048520850486,0.173188518040512,-1.07326370427418
312,312,-0.202239185266346,0.111627325776816,0.967195968671371,0.0240712772679337,-0.0103972839528582,-0.0258814384685436,-0.302452768094482,0.12543399741423,-0.976345684242391
313,313,-0.202142257481864,0.11184706612153,0.966757692013488,0.0199128232757977,-0.00363021275362299,-0.0353255107235005,-0.289788114359903,0.122794414812263,-0.839404371832825
314,314,-0.201986591642616,0.112137003483653,0.966239484922122,0.0164590016546059,0.00197711812431752,-0.0444419139440251,-0.222230336589073,0.0903149827383842,-0.76084136887013
315,315,-0.201714568550874,0.112486561156728,0.96566349105657,0.0144223518441451,0.00806715366333179,-0.052759912786459,-0.144139305499167,-0.0271353237011613,-0.736301959853769
316,316,-0.201273244706232,0.112908887620272,0.964998713008639,0.0134535387060717,0.0149324607577799,-0.0603899539240836,-0.205395840740785,-0.169975119896278,-0.797462154747202
317,317,-0.200702220090416,0.11341072690682,0.964231378191321,0.013627928654854,0.0226685149670901,-0.0671501600372026,-0.224108506520567,-0.168148682282139,-0.77431234936143
318,318,-0.20008248309266,0.113972037694648,0.963409321973029,0.0142487614393168,0.0297749262719085,-0.0728496929766075,-0.244963806979251,-0.0247681217430433,-0.628070991023439
319,319,-0.199494759061733,0.114572843296058,0.962580262428029,0.0146039645543517,0.0366748796917768,-0.0771052320904104,-0.176933879510763,0.0841079537254443,-0.344920646825433
320,320,-0.199019454525107,0.11519323641466,0.961791749644957,0.0143056780128578,0.0414430197358839,-0.0800507426324705,-0.065615064295478,0.34225380179982,0.0106078544452543
321,321,-0.198692681750002,0.115843440744755,0.961040380590653,0.0132023976187645,0.0461679041523279,-0.0808876176750675,-0.0291119565736082,0.395524029046099,0.321585401049955
322,322,-0.1984616980459,0.116536491777054,0.960295628502219,0.0123215692579025,0.0507864781940834,-0.0794271483519306,-0.0752196472645289,0.319171335524223,0.243525619676053
323,323,-0.198273228282341,0.117256723542404,0.959564057392393,0.011384189624907,0.0549149176319527,-0.0769641372171015,-0.0745337692429116,0.239249621097298,0.282893433273355
324,324,-0.198073798065482,0.117988450509856,0.958852000364583,0.0120614818037735,0.0595575300515492,-0.0738506374283556,-0.176218050937091,0.131610650118393,0.195738314439445
325,325,-0.197809719150993,0.118715979507906,0.958165527628575,0.0143649554520458,0.0640757605060866,-0.0713482776906564,-0.0902419741101857,0.243607876366651,0.0148497735764454
326,326,-0.197461860904674,0.119423397908047,0.957501957489316,0.0183055371666584,0.068364496898055,-0.0702648111482286,0.0580766900122046,0.270545427221184,-0.118737004938969
327,327,-0.197066431465848,0.120120772340151,0.956858116583527,0.0236562605439624,0.0722037380155656,-0.0696452600540882,0.0389362506688768,0.376074800542925,-0.102050606863329
328,328,-0.196652476615614,0.120831470566306,0.956238945163097,0.0289909983949366,0.0755188450271075,-0.0693113001190491,0.0648372224412107,0.501156857178815,0.0355075201248834
329,329,-0.196248901622462,0.121578990042697,0.955649130531943,0.0342614828029965,0.0776202690465227,-0.0685720591015902,-0.214428215769714,0.49719981418588,0.17736422324801
330,330,-0.195884473704375,0.122386958834877,0.955093098613707,0.0385428466400615,0.081885581641876,-0.0670968027670747,-0.244004254051934,0.488334629254065,0.370534788017176
331,331,-0.195577213818889,0.123243602812706,0.95457268576503,0.0392794341212418,0.0877302925376548,-0.0650179854845981,-0.0722412673604686,0.603357295952728,0.438400429956537
332,332,-0.195308005525277,0.124132935150274,0.954085434577925,0.0367831982390714,0.0933188051664489,-0.0627100616341916,0.221334014005954,0.799422123179473,0.368550241453208
333,333,-0.195049715136492,0.125072595059697,0.953628876300758,0.0330368648833667,0.100007582894267,-0.0599976073593874,0.344014679812714,0.857818105968512,0.231352004847054
334,334,-0.19477509937907,0.126080527756674,0.953200166135652,0.0300947832972301,0.107117944376853,-0.0572299103867903,0.148733694992805,0.741347135569905,-0.00756787353070346
335,335,-0.194456824512918,0.127174992832002,0.952796088720758,0.0293168205346373,0.113964094005199,-0.0548452452797141,-0.142869182089815,0.59527417435678,-0.109664685171579
336,336,-0.194062733915633,0.128357909842655,0.952427053343677,0.0309623205556552,0.118931788783237,-0.0524986858224262,-0.599676315418407,0.460609664999034,0.0371891539367499
337,337,-0.193610962102677,0.12961801280985,0.952094803550535,0.0354389563191068,0.124888188524625,-0.0495062284505578,-0.764255385170522,0.287721227923065,0.151262595788559
338,338,-0.19314942181601,0.130953545811634,0.951782956635725,0.0398955194935662,0.131649066064467,-0.0468562243744572,-0.40768796622191,0.122356748776022,0.221536347835528
339,339,-0.19272579483434,0.132362094594666,0.951475209921855,0.0425557004475543,0.136825233699685,-0.0452040850144399,-0.0419123834630002,0.190263325260701,0.188272684682674
340,340,-0.19238752650246,0.133840586280704,0.951155353773657,0.0420467757063819,0.140778581168579,-0.045137894298299,0.213832972335179,0.192855160660984,0.00509861313474936
341,341,-0.192139469055511,0.135411155382309,0.950823397562218,0.0375827828294762,0.144983860675074,-0.0467589684028638,0.429807379232556,0.235270569617487,0.115103810370846
342,342,-0.191949401657075,0.137074960175782,0.950490019730292,0.032086261699331,0.150888758766769,-0.0490542562503602,0.342143364159252,0.151319736000633,-0.227269301690349
343,343,-0.191809142742261,0.138797169555388,0.950155207608544,0.0265499151692103,0.156958885919356,-0.052720252074676,0.110698074938423,0.242300212056928,-0.528850940179514
344,344,-0.191710674775146,0.140543210445698,0.949819077037849,0.0210939250382234,0.163621857583033,-0.056947181734478,-0.0358639526053994,0.294544468629806,-0.57933396878233
345,345,-0.191646134591277,0.14227875881951,0.949481888772304,0.0174151401152545,0.171225297653855,-0.0603886991706627,-0.126699524137872,0.383316784047502,-0.534033535225295
346,346,-0.191578242290731,0.14399767764265,0.949137213231236,0.0148110168827472,0.177230002853145,-0.0630588698153671,-0.181534560831733,0.540702299156769,-0.305469875330798
347,347,-0.191512304642556,0.145722528098463,0.948785364211834,0.0133514401314652,0.181867497506061,-0.0651889982104706,-0.279001405426746,0.408037368162329,-0.253824281212637
348,348,-0.191504250120614,0.147462341793297,0.948436658707612,0.0122888839224369,0.18459227037533,-0.0661372466323795,-0.110915714937818,0.299029672279686,-0.345320805584091
349,349,-0.191609719515145,0.149226350042929,0.948101103899709,0.00952322730669014,0.184120064007328,-0.0661365910596053,0.153122446914492,0.344957704521176,-0.266159749360619
350,350,-0.191884076149453,0.151024002553403,0.94778841566804,0.00680212126987661,0.182164888681278,-0.0641474907911938,0.0748697018850689,0.518071334011532,0.0121379088181364
351,351,-0.192389043197084,0.152839834132335,0.947499530695859,0.00214900056486529,0.180513434050029,-0.0581806151092102,-0.104058269697448,0.52811153700392,0.249952654235851
352,352,-0.193087217340329,0.154667699256345,0.947228260739726,-0.00594108988649241,0.181986850906397,-0.0490857698330968,-0.215578360034955,0.299171956419078,0.54115783931096
353,353,-0.193885057735234,0.156531290181624,0.946973037403678,-0.0153658982515068,0.18747178252143,-0.0391671104161382,-0.329540661589565,0.213710836205112,0.501059712102336
354,354,-0.194689005579033,0.158454403625328,0.946731679526723,-0.0237046112377852,0.191810250197295,-0.0300660439268967,-0.183216439090299,0.290931995897306,0.988992426057701
355,355,-0.19540552017021,0.16046088287045,0.946501404907468,-0.0280356950884488,0.198605756148365,-0.0232632481049041,-0.183280389198542,0.357422509688097,1.08285203010342
356,356,-0.196062766068774,0.162528308878024,0.946294399189797,-0.0282582485482905,0.204580012797131,-0.0181248435674741,-0.154539955546353,0.371649479925576,0.940054263584237
357,357,-0.196722801978545,0.164640711298609,0.946111751247474,-0.023379068627679,0.209829374530682,-0.0137002950397559,-0.235037906913961,0.345950468196825,0.59537470042848
358,358,-0.197342998607043,0.166832069178176,0.94593334755992,-0.0150478432382952,0.213826735498453,-0.0105173498612536,-0.1629626716432,0.392053717718289,0.23792006426642
359,359,-0.197880780946484,0.169136990048337,0.945738731789118,-0.00585510338360009,0.215364698956546,-0.00890835197486736,-0.121227200844918,0.622616588626905,-0.0700188468597407
360,360,-0.198293610210372,0.171590605256183,0.945507262088197,0.000137448517623171,0.216353777098373,-0.00891077591610962,-0.124451490713745,0.674678577798749,-0.149325295908759
361,361,-0.198551953597709,0.174317893653904,0.945213099037059,0.00105624880018236,0.220915471303404,-0.0110481117071021,-0.434154597819627,0.554260709810126,-0.212511370514001
362,362,-0.198684401277461,0.177296398224503,0.94486953352714,-0.00198073470797328,0.228124755775477,-0.0154157346133021,-0.63852624687351,0.49719012417751,-0.305414305287168
363,363,-0.198735491292914,0.180340043862126,0.944514623804974,-0.0079486106903889,0.237702942074988,-0.0210343271208699,-0.540549950156165,0.428457145976647,-0.374107727379639
364,364,-0.198749511904065,0.183262467169533,0.944186191505323,-0.0148440815815762,0.248363737527421,-0.0267085149130008,-0.26545236633983,0.317951247658602,-0.303569037318667
365,365,-0.198770499161986,0.185877139593385,0.943921749006464,-0.0219151928863735,0.253943644060724,-0.0304338442708153,-0.0459942318089045,0.357820601107827,-0.0074928422870337
366,366,-0.19878862158226,0.188088662047968,0.943746687433905,-0.0265244639729438,0.250556540970561,-0.0315250898210912,-0.0227862422390785,0.4196388241731,0.242452931883216
367,367,-0.198774365645166,0.190021248634744,0.94363582941639,-0.0289722882113732,0.240176074889196,-0.0309627179872019,0.0202200579651394,0.29935998603173,0.309763363239306
368,368,-0.198742215436006,0.191817582696625,0.943551281928267,-0.0289521335592182,0.228688578019628,-0.0296935834872452,-0.207434362229862,0.078195573285371,0.0836075799562691
369,369,-0.198706736597573,0.193620092900355,0.943455865753793,-0.0283370690722214,0.217953633559154,-0.028647710039746,-0.277805723050373,0.00962119539473373,-0.084211448234858
370,370,-0.198682626557456,0.195570860296441,0.943313180513225,-0.0262377385785681,0.206989637313793,-0.0286162189984516,-0.296239659686208,0.191031332189418,-0.163005007622232
371,371,-0.198678741323483,0.197714055149702,0.943101451065169,-0.0198270013129625,0.195920370119024,-0.0303047708859084,-0.669766807104929,0.372096832299466,-0.316538645336611
372,372,-0.198685966699486,0.199953425071321,0.942848262643565,-0.0138838781126805,0.191859736454448,-0.0334538106884383,-0.523091415006002,0.136214145072674,-0.351396452316701
373,373,-0.198692195635726,0.202220744751139,0.942591635513395,-0.00836903778424379,0.195473869072196,-0.03705199206424,-0.240347665826048,-0.0810436155862792,-0.119314323152731
374,374,-0.198685164366146,0.204448812680276,0.942368976776222,0.00178587340806,0.200355643460849,-0.0398298657825387,-0.502540447618139,-0.204418249212819,-0.0746227751265054
375,375,-0.198652382658642,0.206571589397931,0.942216980792273,0.0132295563375425,0.201592753047614,-0.0403485727603466,-0.130305016355112,-0.0546232205297235,-0.0407580352907445
376,376,-0.198581350197454,0.208581932148218,0.942130588551326,0.0300754445820611,0.199995599299007,-0.0388130631330935,0.195496306967171,-0.0127785852679877,0.112249323347918
377,377,-0.198481470080046,0.210525151685881,0.942088815305415,0.0514805703346258,0.198310345158616,-0.0365241813242019,0.536168146293353,-0.176374649318054,0.237454072608801
378,378,-0.198372780822116,0.21241455970284,0.9421028258011,0.0724632904781514,0.194036172367373,-0.0323426824600081,0.415844385854798,-0.289392264916816,0.378701225983584
379,379,-0.1982750414385,0.214263077579399,0.942182180437275,0.0907573700260993,0.185604998848959,-0.0259349668327436,-0.0584811025888208,-0.158897909471491,0.237898842853091
380,380,-0.198207648025918,0.216083130175891,0.942334749097611,0.0972126124741903,0.172769739337881,-0.0176208311899803,0.211574870221728,0.0284236493708955,0.515565201622038
381,381,-0.198146755567725,0.217874582019427,0.942557096684897,0.0866928416392701,0.158585296527851,-0.0062011121676286,0.484916802325325,-0.123134581405259,0.671022716635539
382,382,-0.198080465183078,0.219629922073377,0.942844727454393,0.0605678178406329,0.144474140019228,0.00752558124876999,0.756355037615013,-0.67502109735928,0.561671247493777
383,383,-0.198045179033823,0.221349507224734,0.943201244911993,0.0274209454990613,0.132065924330531,0.022313708831281,0.621126862533477,-1.17517679537727,0.369183580478775
384,384,-0.198076462688147,0.223032936740978,0.943628318757962,-0.00532662739320782,0.120338274561043,0.0366119434174408,0.774344105203448,-1.25966957978515,0.583613769139832
385,385,-0.198209057997,0.224679115398716,0.944125803472737,-0.0339347494800809,0.11305837670625,0.0481908935434022,1.34651243913764,-1.50087508573487,1.55388205984605
386,386,-0.198498047958674,0.226232004655761,0.944702768364474,-0.0498581584660834,0.111136529607478,0.0576526776984608,0.486661120607998,-1.49459828913451,0.716138804417258
387,387,-0.198919208190547,0.227690892467367,0.945355460642589,-0.0590412841745785,0.110782376549243,0.0681031786812649,0.117187685112256,-1.16821921417683,0.0686300253438188
388,388,-0.199387890446462,0.229137890709133,0.946063829892312,-0.0643168041305894,0.111740755301466,0.0782281281257013,0.217564159808316,-0.92889886821904,0.00903858292190093
389,389,-0.199819628032524,0.230655900123986,0.946808427958812,-0.0659016518665605,0.111766849993396,0.0874134987974945,0.0638582892231973,-0.610243951949956,-0.149585446355796
390,390,-0.200130096036915,0.232328559141919,0.94757036236624,-0.066737131338536,0.11310125622,0.0944881774983605,0.0272454031250928,-0.365165603454522,0.133181413584077
391,391,-0.200273874702442,0.234234263506772,0.948377097230773,-0.0645066518331055,0.116253656779847,0.0968011780418584,0.302964583950602,-0.289241572416029,0.109579902583794
392,392,-0.20030666361945,0.236318286734973,0.9492400019636,-0.0557048517261619,0.118712701403587,0.0976343536123514,0.132312779536674,0.128345472421183,0.0566567549217675
393,393,-0.20029578661146,0.238464837612026,0.950116356751611,-0.0508202502490453,0.128539694334905,0.092576716765836,0.362182760325979,-0.261013621257605,-0.0886626533288674
394,394,-0.200308449148282,0.240557660220732,0.950963101229705,-0.045362948913336,0.143392796636618,0.0874964434329079,-0.0245420781981364,-0.553092645762938,-0.126799198916632
395,395,-0.200411780995747,0.242480036129349,0.951736789427896,-0.0418855683887559,0.149317966335331,0.0841388194097493,-0.159500741613232,-0.299106481814242,-0.359917201914873
396,396,-0.200634692306151,0.244219564594551,0.952425780720956,-0.0430084107254052,0.151718830117303,0.0810885249839768,-0.0606214631593583,-0.378737648914442,-0.552097186251484
397,397,-0.200931726450814,0.2458540477974,0.953057559622944,-0.0475267283387729,0.14964046400438,0.0782467835254733,0.0372785265321801,-0.375707313274208,-0.65432849228005
398,398,-0.201258518701363,0.247401693224516,0.953647332044623,-0.0524316516489002,0.143917176188599,0.0760392341746967,0.140443807116679,-0.293081897750967,-0.530352688776516
399,399,-0.201570733007966,0.24888060842247,0.9542104571423,-0.0549861169966627,0.136147856482576,0.0740842348158525,0.109850270863938,-0.222534385287076,-0.387571032185385
400,400,-0.201824034032177,0.250308805284793,0.95476239441215,-0.0551266754428594,0.130703810809675,0.0712120870294281,0.206261608569615,-0.314498651659777,0.159315599100027
401,401,-0.202027269177685,0.251655271752066,0.955295367147529,-0.048357054789554,0.126842678659952,0.0679789569213882,0.137277591326831,-0.135771646837413,-0.257666016129558
402,402,-0.202209670148871,0.252907773044801,0.955798473183561,-0.0374617558774768,0.123677406180074,0.0640579997673436,-0.00277037071954896,-0.229994328935315,-0.624042277579945
403,403,-0.202357324544561,0.254112493681409,0.956282405438584,-0.0259376841224435,0.121695767522338,0.0592798286517749,0.113525187495391,-0.102826099936773,-0.672836431476647
404,404,-0.202456103478169,0.255315712880635,0.956757677133265,-0.0150099865937951,0.119991901945573,0.0543137723331481,0.000611226883123934,-0.0467490943280702,-0.697715721097349
405,405,-0.202491685776448,0.256563793966473,0.95723466359808,-0.00684499293178067,0.118086090435852,0.0493869533993825,-0.122818413269108,0.0184726761277936,-0.434592394957276
406,406,-0.202432248586807,0.257917598818241,0.957731838735894,-0.00214480618946027,0.11800588787811,0.0444989755096869,-0.0649846836748736,-0.0962971470820684,-0.69187644720049
407,407,-0.20228668551755,0.259346281203281,0.958241605400106,0.000648675314245244,0.117413739842325,0.0398662646336841,-0.112418206022059,-0.0920903592464301,-0.91563512322764
408,408,-0.202101580583293,0.260758677868285,0.958735078359112,0.00234911034971137,0.116567768361425,0.0348131408268947,-0.0899272956307854,-0.139188362186061,-0.839992601455019
409,409,-0.20192348686892,0.262063598660469,0.959183295592187,0.00355498271963025,0.115189078374456,0.0290148264277928,-0.162990662482885,-0.320504721187371,-0.656942175617386
410,410,-0.201798978863199,0.263169831450125,0.959557271349141,0.00640232872153124,0.11233947167924,0.0227650141205297,-0.329034180973723,-0.447013178664828,-0.558410630852908
411,411,-0.201761826818955,0.264048574400934,0.959862436542196,0.00835366442034654,0.10755284361977,0.0152520988821859,-0.222259406026972,-0.455005457708462,-0.617937636729493
412,412,-0.201780747042396,0.264760666446634,0.960117794292711,0.00962203086662499,0.101032854172893,0.00656399790662985,-0.185185186187656,-0.589285818745879,-0.959003307252094
413,413,-0.201804822651768,0.265349360264202,0.960314816922267,0.0106152556110076,0.0923966546636064,-0.0018387883433836,-0.0780377606648566,-0.465379813516023,-1.11150072119523
414,414,-0.201783181918764,0.265857870951193,0.960445082587756,0.0119726521291751,0.0832359674386912,-0.00939869652964798,0.0974711036571852,-0.345001856129108,-0.894240344968976
415,415,-0.201665014566389,0.26632931168376,0.960500266982818,0.0151824508234253,0.0751818395328154,-0.0151333210038773,0.148934304111966,-0.302614318543491,-0.558709207072074
416,416,-0.201444154776936,0.266776947019884,0.960466155585232,0.0214222598382234,0.0689189268699124,-0.0185794845670197,0.0133443898361432,-0.238196172431236,-0.369871590258326
417,417,-0.201155179099042,0.267171714819947,0.960348995728972,0.0294238245588298,0.0643358367341061,-0.019926195576854,-0.0517771604154283,-0.312390902447499,-0.213713263894316
418,418,-0.200808382694129,0.267493194917504,0.960171135241509,0.0373460492228333,0.0583864671321275,-0.0199040172013648,0.0513261104840266,-0.292899881549176,-0.121960323980238
419,419,-0.200413856718404,0.267721134713454,0.959954726692928,0.0433417545744299,0.0523446697580528,-0.0201975502773495,0.0397937621085867,-0.413881986356181,-0.0221271762836826
420,420,-0.199981400053563,0.267835516705377,0.959721659628116,0.0467252905965554,0.0443454249447241,-0.0213463106197103,0.00629045283962776,-0.388194367354927,0.026616317576772
421,421,-0.19947229914603,0.267816128818078,0.959473250399256,0.0480527135346374,0.0329650043308091,-0.0232856135691823,-0.0996579734940411,-0.396469371402052,-0.0233955076941906
422,422,-0.198880762374257,0.267676227600899,0.959195711955267,0.0480091193921697,0.0182535242310967,-0.0253122888003613,-0.152959320343879,-0.337002316633181,-0.0684248296706504
423,423,-0.198265497676174,0.267446294462901,0.958887902952039,0.0464856884251691,0.00244471406400978,-0.0273419868256933,-0.145595000820573,-0.27802677744608,-0.0936785196122293
424,424,-0.197684879479574,0.267156946748175,0.958548401102685,0.0438731383167394,-0.0139587494388347,-0.0291425606918014,-0.117773363866747,-0.198112717816191,-0.194361076630607
425,425,-0.197196940572862,0.266838938442315,0.958175445249743,0.0404734801872453,-0.0282106355196404,-0.0308010424177417,-0.212309568925828,-0.150973555282555,-0.335018800215982
426,426,-0.196812067267379,0.266491507538908,0.957751606783452,0.0357698944509167,-0.0383157827507945,-0.032670393536744,-0.22642828125472,-0.163992186263661,-0.40125854195047
427,427,-0.19649153662209,0.266094457741601,0.957278271639842,0.0282532739625723,-0.0462364721208464,-0.0350882551139196,-0.0760395136379548,-0.191327661519532,-0.313140242144009
428,428,-0.196219472192425,0.265649493375976,0.956781613809284,0.0203430747329193,-0.0530630722134208,-0.0371593008110942,-0.0992516513910542,-0.106284061626776,-0.138549674258632
429,429,-0.195979983824898,0.265158324807609,0.956287793323762,0.0132457629719536,-0.0598615470633887,-0.0385098381973957,-0.0635313112048421,-0.130209047527806,0.0163889452239306
430,430,-0.195757165249665,0.26462266572245,0.955822962186892,0.00653885948655545,-0.0616294032167549,-0.0410122351860481,0.0475513567317266,-0.372615520783826,0.235672702682567
431,431,-0.195551115632424,0.264034435848624,0.955391341013553,0.00272295798281387,-0.063905983714525,-0.041483571238861,0.0109837833017679,-0.281631833307145,-0.0708238406161345
432,432,-0.195372393760059,0.263392924891601,0.954975676223499,0.00173723478055927,-0.0680541571695695,-0.0410040460794582,0.00198173757075759,-0.198896736818896,-0.247709955658177
433,433,-0.19522078837088,0.262710781344836,0.954569899918199,0.00151628042299902,-0.0728648949450256,-0.0404019369270389,0.0374186467962217,-0.20035203046091,-0.306627213692793
434,434,-0.195096099725661,0.262000489988418,0.95416792684947,0.00157000557008624,-0.0766411191265737,-0.0399768122238011,0.0625037167385354,-0.290048248900164,-0.263870928292081
435,435,-0.194998141185681,0.261274367775216,0.953763666863231,0.00195418729032559,-0.0796143768178533,-0.0398508393745148,0.0643061237940467,-0.483323764197175,-0.110454957312418
436,436,-0.194933842230661,0.260534028057641,0.953358754489088,0.0016022819636717,-0.0816804778095556,-0.040074001043599,0.0279087637513661,-0.494229105999539,-0.076610458377692
437,437,-0.194903349279836,0.259771230570273,0.952957471524594,0.00152985633097848,-0.0828359622713044,-0.0406503644345411,0.0777631918245332,-0.556622836041918,0.00942541154941562
438,438,-0.194896301007839,0.258983445665232,0.952557716827353,0.00212189289914194,-0.0841836062148837,-0.0412187969259874,-0.00630029954063972,-0.551995845544338,-0.00109311282320758
439,439,-0.194902307569694,0.25816821797098,0.952157375627562,0.00239679295585116,-0.0858500822559555,-0.0417893267421133,-0.0023171016642213,-0.568835848951465,0.0188089516041148
440,440,-0.194910943324568,0.257323166436404,0.951754320184327,0.00255028936215684,-0.0886618986875222,-0.0421119108712106,-0.137134362523595,-0.493865767550432,-0.0607350652542402
441,441,-0.194912962150977,0.256478023652289,0.95135249449055,0.00181104516520253,-0.0931708209406828,-0.0421944215116911,-0.0123743821040034,-0.409742570565514,-0.113367175120715
442,442,-0.194915263147029,0.255634615523908,0.950953547530223,-0.00014504472159379,-0.0968350202992404,-0.042413153570936,0.07774522438561,-0.386301993483521,-0.110122078806935
443,443,-0.194931624426882,0.254748671919911,0.95055200921098,-0.00280848670305611,-0.0999721243566282,-0.0428869094691424,0.162446165391409,-0.50606068166014,-0.0477441161531911
444,444,-0.194975828380295,0.253775794569294,0.950142536155936,-0.00568350062342586,-0.103246080890315,-0.0435412808396666,0.222444293092447,-0.556999479352656,-0.0569189189287975
445,445,-0.195061659161629,0.252671445263476,0.949719916360038,-0.00770158097162413,-0.107121592673232,-0.044396397233899,0.210325850942867,-0.612490490402027,-0.104360794733397
446,446,-0.195190581421107,0.251430195356448,0.949284272803681,-0.00960639971468489,-0.11337763419775,-0.0460040831450193,0.149016407532181,-0.519501955233102,-0.207827741480392
447,447,-0.195353339617777,0.250081621963472,0.948839710047331,-0.0123299747577052,-0.121150861039296,-0.0485314721897349,0.213813019883726,-0.48301244010589,-0.243751589701106
448,448,-0.195547680810745,0.248633548465129,0.948387137832392,-0.0142209592990704,-0.12882948299559,-0.0511023919152122,0.022844838588251,-0.470603711814972,-0.230236386707346
449,449,-0.195771403562466,0.247093762856636,0.947927530271083,-0.0150387815106858,-0.137175193447325,-0.0525632617185402,0.0191960197259578,-0.43989713643419,-0.346315037628762
450,450,-0.196022379701451,0.245470024944841,0.947461950524017,-0.0165231956696367,-0.14457075130526,-0.0534346853601933,0.0377599253623062,-0.506197904052438,-0.381033797037175
451,451,-0.196292822591358,0.243722491924589,0.946971428833569,-0.0176868324984157,-0.152687825708605,-0.0542508317671998,0.0532970840826986,-0.470869644369947,-0.292355788203741
452,452,-0.196584409106339,0.241845575530973,0.946456530750572,-0.0194277401060568,-0.161534038482092,-0.0547776501807174,0.160130853539614,-0.523608582889056,-0.0707758464289532
453,453,-0.196909127483918,0.239898654608515,0.945947310502922,-0.0219482255076439,-0.170348736246085,-0.0545120905161402,0.292575403584472,-0.585887874981716,-0.232588929379635
454,454,-0.197278717612846,0.237941442063586,0.945473230052973,-0.0243310561154201,-0.178670193289682,-0.0532940686053795,0.258512380605654,-0.499932948090355,0.0999095443597572
455,455,-0.197704633244746,0.236033993861579,0.945063166465163,-0.0270191915146367,-0.182859432908447,-0.0493038783484899,0.13930050131907,-0.409249307377104,0.23352315141412
456,456,-0.198221030481687,0.234170449663349,0.944709695472206,-0.0295506478199477,-0.182376206139502,-0.0425321459092311,0.142639087042698,-0.246639663315065,0.441392193843366
457,457,-0.198820002410565,0.232311505110733,0.944394563141039,-0.0311899623480582,-0.179274829466217,-0.0329465773424092,-0.0145555096590835,-0.123334169551695,0.753395551622909
458,458,-0.199449519975588,0.230466957627689,0.944128562446541,-0.0330193877144943,-0.173440806570112,-0.021235312704687,-0.21574446792101,-0.0287786871999925,1.03920254369786
459,459,-0.200057434358867,0.228646086878415,0.943920504770691,-0.0347229906536652,-0.16676313458634,-0.00901410815627492,-0.156065947938806,0.128323905816322,1.2579262894767
460,460,-0.20059158090014,0.226857691487968,0.943777418152603,-0.036819691702212,-0.161082944179753,0.00232050889695097,-0.0547897053700821,0.20535671711753,1.19072213635451
461,461,-0.201006877603121,0.225079305831735,0.94371012759298,-0.0392237161433317,-0.156627970011761,0.0141971141311926,0.0411724195711873,0.146728997767604,0.997368735459993
462,462,-0.201337789089062,0.223304925915685,0.943710886282139,-0.0434971859700724,-0.152449499627546,0.0272679853696618,0.0429272798323677,-0.037717628313121,1.03410984462553
463,463,-0.201651513921079,0.221567368857529,0.943758044632467,-0.0484219476969612,-0.149212931121578,0.0394490178788503,-0.0848037412750823,-0.280239508504292,1.23979621326228
464,464,-0.20201522731361,0.21989899169547,0.943830290429964,-0.0514766069922344,-0.149116523839193,0.0483304359062915,-0.406209250811088,-0.431958543628252,1.23291527103781
465,465,-0.202496048360099,0.218331887382445,0.943906750112081,-0.0527179819160677,-0.150714268105657,0.0519418979322054,-0.671688222487427,-0.50142012933438,0.908243080266824
466,466,-0.203143693354867,0.216981504710713,0.9440394293207,-0.054580395099302,-0.151354758725812,0.0492389631225808,-0.87248585727928,-0.615494803288486,0.311444724565255
467,467,-0.203913223303432,0.215826005363021,0.944241678533016,-0.0605391635712757,-0.151686466965486,0.0412163622364643,-0.692533036470261,-0.670545258005848,-0.257752638722999
468,468,-0.204729848203128,0.214691857264492,0.944435832233574,-0.0707565265339838,-0.153381634620425,0.0299117665304496,-0.53928210292877,-0.546219097005393,-0.862231253519411
469,469,-0.205518959471163,0.213405736798884,0.94454482419643,-0.0823196585733919,-0.155295446095932,0.0171995705966906,-0.462421420997369,-0.51205172419463,-1.33855931151322
470,470,-0.206206168058133,0.211794515926186,0.944492105328144,-0.0918461705666092,-0.158338808367853,0.00495773395899102,-0.438173702406346,-0.523736088504704,-1.5957673474041
471,471,-0.206781948424528,0.209713048392805,0.944220373568798,-0.0980211145375858,-0.166583364283506,-0.00904649683112592,-0.540260767686075,-0.633119149163052,-1.64498772578975
472,472,-0.207296548363377,0.2072787562351,0.943783973814595,-0.103323639627535,-0.180237672402809,-0.0257507178768433,-0.600766884456924,-0.736298674170298,-1.43566713568429
473,473,-0.207765472839841,0.204712092108555,0.943274362521226,-0.1067731564981,-0.196201370868574,-0.0417490166074973,-0.653824775391026,-0.740487794397965,-1.10335536844822
474,474,-0.208204241475619,0.202232534784148,0.942782807386718,-0.106455212801783,-0.210979155147047,-0.0541327757703554,-0.775148332470666,-0.625503721026738,-1.00076272291497
475,475,-0.208628377500089,0.200058331800159,0.942400371842724,-0.103338806889376,-0.221634626787432,-0.0604097983989762,-0.435721986123946,-0.175437394078422,-0.73897472527661
476,476,-0.209033647912021,0.198221278699515,0.94211591803792,-0.0943718417368362,-0.217828915180553,-0.057843087880253,0.15312573126763,0.042503780850983,-0.0082079637799709
477,477,-0.209411411873823,0.196575879999235,0.941874043762346,-0.082945898747515,-0.20596892693255,-0.0482144141249892,0.389140207634029,0.443333479308639,0.647628067112993
478,478,-0.209770382101727,0.195072808652134,0.941698227874819,-0.0668225522695718,-0.183912823611009,-0.0344605334550706,0.493188473541088,0.385470928130343,1.09344025395857
479,479,-0.210118847645683,0.193661960147629,0.941610220568889,-0.0508866962230424,-0.159090094939842,-0.0197426259797229,0.698006992195534,0.360380504547333,1.39665446299444
480,480,-0.210464503844892,0.192292512612178,0.9416298477012,-0.0404492564123932,-0.138554346444867,-0.0068679923647539,0.360341459178392,0.406567296937844,1.46010194458746
481,481,-0.21077978703337,0.190972335208981,0.941749893495721,-0.0317688451742499,-0.120333735159113,0.00466550538474725,0.102023235612138,0.416500991776291,1.30707612492599
482,482,-0.211061027814717,0.189731929195224,0.941959768554347,-0.0244325919369355,-0.102095916014265,0.0167458248049017,-0.0349830796801813,0.469765867499892,1.0751714862742
483,483,-0.211350771413625,0.188555263574699,0.942271220045502,-0.0195963647214369,-0.0885465127224164,0.0294793798932911,-0.0635791139399292,0.695005214327071,0.869245060358248
484,484,-0.211690941680136,0.187428209472858,0.942693885556973,-0.0183948372425602,-0.080394540700778,0.0419405164818994,0.180579565334442,0.965516820818689,0.693647886284578
485,485,-0.212122782947262,0.186338634030784,0.943235379098734,-0.0252971841902455,-0.077367378610257,0.0545707133086133,0.43750203338303,1.2163812034753,0.711534417431746
486,486,-0.212689473351191,0.18536420342123,0.943911160622423,-0.0442630153039597,-0.0786109863912175,0.0688389598928465,0.81889151044004,1.08365323343747,1.08448444362779
487,487,-0.213363465529999,0.18451517361777,0.944713519092379,-0.0728821594052306,-0.0844689971972266,0.08502112543323,0.765216324216863,1.07429565424955,1.28491262756291
488,488,-0.214079372808922,0.183678609762156,0.945614533590157,-0.101521234396064,-0.0891658469348903,0.102347059750514,0.530211462833947,0.910193265686592,1.17324546748536
489,489,-0.214771843294729,0.182740035649549,0.946586803646583,-0.123579842098598,-0.0889302728550707,0.119042156974666,0.208488588224548,0.515994719169794,1.23644314376514
490,490,-0.215375569553164,0.18158342355127,0.947603362386673,-0.133538665970901,-0.085038183238757,0.133119848284856,-0.0622894911718173,0.197182481690388,0.752480438727553
491,491,-0.215903208276626,0.180125736156505,0.948682126658548,-0.133890795497821,-0.0884030488368061,0.142418600229214,-0.045199305351405,0.364336256947508,0.352672289443801
492,492,-0.216398494699037,0.178441952402956,0.949840753518287,-0.128294783997138,-0.0991484315986037,0.148679326001155,0.0391599245268116,0.681121973788788,0.228535274728434
493,493,-0.216842660088047,0.176652676050268,0.951051831910566,-0.119668921223243,-0.1130062375261,0.152416240006621,0.0573408239242698,0.845073913171056,0.351671248219953
494,494,-0.217216767475431,0.174879598426073,0.952287218693526,-0.109653581865644,-0.124115659628993,0.153731094590485,-0.0378016776751551,0.855143048053689,0.195782902235816
495,495,-0.217501688128889,0.173245461970229,0.95351803332509,-0.101143086065378,-0.129589315241321,0.153348335956059,-0.0859137554783111,0.827211804414225,0.135731342673289
496,496,-0.217646290522461,0.171750276690536,0.954764580845511,-0.0905407653257391,-0.127639022647488,0.152456323336523,-0.30144245518506,0.723258158806851,-0.0698720840315102
497,497,-0.217663139558448,0.170312321160659,0.956044272371978,-0.0780042693433458,-0.122557654121199,0.150290886831066,-0.402664664834953,0.781988761165983,-0.20418761476829
498,498,-0.217628429854681,0.168932680637279,0.957323334071427,-0.0654439145940839,-0.116411052322871,0.146218395966483,-0.530496450921122,0.664385545584723,-0.325626641869614
499,499,-0.21761825803881,0.167612731219506,0.958567946364335,-0.0545614991409833,-0.111456056466172,0.140957740864686,-0.396810892860018,0.610011435172285,-0.440436939567906
500,500,-0.217708610835456,0.166354167487754,0.959744290102874,-0.0464500094586384,-0.107129375902056,0.135968479666778,-0.139532615981846,0.505275595417776,-0.491873281037605
501,501,-0.21794840183971,0.165176751036521,0.960843841068757,-0.0429506147201016,-0.104855912374079,0.130751779933196,0.130006347612101,0.321913102876447,-0.560754935033437
502,502,-0.218286652151133,0.164080148337769,0.961887765948975,-0.0431982902618201,-0.103809835111659,0.124667340658848,0.141175723342656,0.205641483971736,-0.473716893894076
503,503,-0.21864897023507,0.163036102073691,0.962886559865976,-0.0434278390402974,-0.103061958106669,0.118222896173922,0.0118442067274926,0.0289833991504171,-0.470127605992095
504,504,-0.218960387734039,0.162016237553657,0.963850396216307,-0.0439244979650355,-0.102798565468868,0.111223298613833,0.0737492552947339,-0.0332695827244211,-0.645583601725443
505,505,-0.219145406133074,0.160992053189273,0.964789153720922,-0.0421353198443222,-0.103398697779564,0.10411368641812,0.214875576551923,0.0570750552739234,-0.462516772975368
506,506,-0.219151105407881,0.159949921046512,0.965712336604584,-0.0351725593801619,-0.103386122374749,0.0973776854428713,0.00585970590517149,-0.0501439420135009,-0.604252657527375
507,507,-0.219026165160623,0.15890930515806,0.96661183528196,-0.0237883293031092,-0.104828553222087,0.0911013531416642,-0.214030383888552,-0.0761043139681861,-0.553114992331615
508,508,-0.218846956670614,0.157891260218325,0.967470798573447,-0.00995435374271973,-0.104772981157527,0.0853073412930546,-0.358565773150217,-0.0640411290957392,-0.570015900271797
509,509,-0.218689637699432,0.156916839564748,0.968272244781056,0.00144400394478254,-0.103781732926546,0.0790341051412843,-0.170054451097739,0.0677689127744898,-0.496146475010833
510,510,-0.218630187486276,0.15600708792261,0.968999102904324,0.0065851565603208,-0.102825914844575,0.0718638512835081,-0.10706710076429,0.258338966952061,-0.510077287075155
511,511,-0.218700308036365,0.155147324564077,0.969656644056438,0.00309731974687298,-0.0977311016543039,0.0645571337228316,0.163474393822165,0.266015000609555,-0.524838982857181
512,512,-0.218847622012632,0.154323946678032,0.970255068074378,-0.00447810500225388,-0.0907918697621747,0.0570075116036394,0.08358442763448,0.20789135632184,-0.816781956617074
513,513,-0.219021839552563,0.153559507436861,0.970784660056528,-0.013454673360397,-0.0821949367822213,0.0498281060492075,0.0895550899862065,0.17095601508438,-0.913721002599327
514,514,-0.219172650504434,0.152876448785005,0.97123571796776,-0.0213244362209131,-0.074831481943078,0.0423283757761882,0.261627491088527,0.31804371937616,-0.78258797518766
515,515,-0.219249787627071,0.152297141319114,0.971598574667908,-0.0233787945448277,-0.0691352754728656,0.0334598936387214,0.220248861154647,0.216827343547836,-0.854450598497384
516,516,-0.219266355300703,0.151818259867594,0.971870279955145,-0.0190418830351847,-0.0648780257752042,0.0244551474579421,0.369791265140482,0.0897371413438602,-0.724324987894478
517,517,-0.219254902610224,0.151425019922522,0.972056798203637,-0.00978194640698559,-0.0608759316161009,0.0148212496461828,0.220999280231846,-0.0333711137774846,-0.954147614206535
518,518,-0.219194506635697,0.151122657421289,0.972161933581682,0.00139797211943198,-0.0555936548555387,0.00485948836368291,0.2794491004865,-0.152740773345118,-0.879866625725164
519,519,-0.219064407018477,0.150916449285445,0.972189564757953,0.0123195882643538,-0.0500561478609116,-0.00506575155557908,0.0420249615707797,-0.108866668791641,-1.12729748312423
520,520,-0.218844040474145,0.150811628866599,0.972143647740938,0.0209641538410699,-0.0427378853379595,-0.0144337348514479,0.210504007929868,0.0442403226537837,-1.12609483582975
521,521,-0.218515753428648,0.150811454923932,0.97200776174536,0.0297211810836283,-0.0325160257287169,-0.0232255764400239,0.488333686040051,0.183733053284441,-1.01582916422472
522,522,-0.218093960385753,0.15091247414994,0.9717796559142,0.0405430140868512,-0.0212213722200826,-0.0315472332014983,0.360621620273462,0.315915631873675,-0.881199745920122
523,523,-0.217606405293144,0.151109727586258,0.971484599027973,0.0503672273611383,-0.00822943741138104,-0.0384645390926914,0.108932237294315,0.284701297472646,-0.809061330546933
524,524,-0.217080747913156,0.151398261729811,0.971147806427849,0.0570402403276122,0.00466657506771536,-0.0447040204459361,0.116376416325969,0.278631585604873,-0.641716440927225
525,525,-0.216544436471113,0.15177318481102,0.970794393445648,0.0617654540130292,0.0164359575197998,-0.0497632686580494,0.0543794473922529,0.254591932332281,-0.587249401505293
526,526,-0.215983116121856,0.152269638698705,0.970439465567232,0.0651712434190677,0.0267091520476691,-0.0537875600792923,0.166118449333052,0.374393382391736,-0.443655798903576
527,527,-0.21537993275658,0.152890698355154,0.970067160183963,0.0676759059342662,0.0361497536736458,-0.0571226066550519,0.0572802830275751,0.403045293549509,-0.428064747417563
528,528,-0.214758191314558,0.153583445029784,0.969655975055615,0.0682620709920415,0.0458044481434813,-0.0597974783150916,0.098903843120702,0.293237823708486,-0.367653193368819
529,529,-0.21414091012584,0.154294959714317,0.969184253497573,0.0685133788523678,0.0546243939567166,-0.0625631109995991,0.124348026284836,0.20077795604291,-0.313853701305264
530,530,-0.213550776388218,0.154972324793886,0.968630128048412,0.0682502645971631,0.0628857793186281,-0.0655955531064668,0.17245328874605,0.0591804209720273,-0.290463443975258
531,531,-0.212975337574894,0.15561650314897,0.967970370196593,0.0678875185927093,0.0673345265810938,-0.0694340671679913,0.153608608320314,0.0914743353527522,-0.277159575033187
532,532,-0.212400471376022,0.156262487670429,0.967220421970716,0.0670216234941842,0.0697362111528714,-0.0732820966573361,0.0792797118407436,0.0849628243372103,-0.34010707354495
533,533,-0.211845987085321,0.156908474982602,0.966416188103885,0.0650137553362347,0.07037113935105,-0.076580639388708,0.024774789780306,0.087375692550528,-0.418449804475258
534,534,-0.211331533734057,0.157552758449104,0.965593488111312,0.0620626808577341,0.0697781985889684,-0.0792610236699923,0.0169550384846866,0.107254666908095,-0.408500571982528
535,535,-0.210876587869583,0.158193738394548,0.964788040085187,0.0579489837558103,0.0704036234198974,-0.0811775396111739,0.198935005167139,0.134302279301615,-0.274273134325043
536,536,-0.210500638568569,0.15881502607028,0.963994495881854,0.0533270092616456,0.0712153813485261,-0.0824344391917029,0.233250275955173,0.258240861996468,-0.181332880340875
537,537,-0.210191403447621,0.159417650121379,0.963189925498581,0.048038230227687,0.0712589729490166,-0.0830315606285491,0.138283540687415,0.441399238241,-0.154671303225081
538,538,-0.209920433859464,0.160026195809714,0.962383513702983,0.0421200962386845,0.0725256263864019,-0.0830886964584491,0.076546704552505,0.423897146372135,-0.0130608375985486
539,539,-0.209659093548345,0.160665213779351,0.961584332256526,0.0374180185785555,0.074566412983241,-0.0825455197404056,-0.15335519463544,0.412544625550755,0.000502084400738809
540,540,-0.209378559743112,0.1613592195058,0.960801333239949,0.033427365442074,0.0757257323385202,-0.0819885297670699,-0.139816090366562,0.43091177469649,0.116748306666695
541,541,-0.209071490827841,0.162118436516541,0.960035433874328,0.0304981887910474,0.0762277681094144,-0.0806723850845922,-0.261362629191305,0.392467112780317,0.146783796946636
542,542,-0.208757339446982,0.162926563515386,0.959281437411209,0.0278028819611266,0.0783750067674615,-0.07811946687808,-0.1475087285355,0.243944901077713,0.182210988530994
543,543,-0.208447259681813,0.163768049790475,0.95853898557564,0.0240244741310003,0.0830301545309895,-0.0758163464788345,0.224320056387435,0.221205985732471,0.319192735006648
544,544,-0.208152281022623,0.164626995681656,0.957807639045691,0.0208352923715498,0.0891378322842427,-0.0740806847919001,0.377091180130425,0.232169708702046,0.0505326695908388
545,545,-0.2078833212847,0.165487135580552,0.957086869214307,0.0182359040181845,0.0945890361187006,-0.0729711305303002,0.3825635683634,0.300386211123172,-0.0547374545138267
546,546,-0.207641644536616,0.166332210508559,0.956375187696527,0.0179793219505171,0.098912597304783,-0.0725041363409623,0.143796179276052,0.350924420305582,-0.124815787648738
547,547,-0.207419913423081,0.167171916933316,0.955673617767776,0.0188640373930258,0.101532267227946,-0.0728212858918965,-0.00355632820602293,0.355016718919469,-0.197536475403605
548,548,-0.207216079327889,0.168028990076888,0.95498533594884,0.019671212762697,0.101691465415093,-0.0741184913091066,0.0259314360540438,0.474420649230267,-0.111729966113187
549,549,-0.207028076051548,0.168926646785057,0.954313517662616,0.021082639350356,0.100510991216765,-0.075842612467805,-0.0887429830734196,0.404708219773146,-0.078019359646941
550,550,-0.206853823261877,0.169888629208864,0.953661378118231,0.0221267552870398,0.0996533055913484,-0.0774217837918907,-0.144652038661122,0.40985442041573,-0.180837888297948
551,551,-0.206691708597409,0.170896399546435,0.953035127628571,0.0214619450490412,0.101467795506628,-0.0787640356994931,0.151610182139291,0.241796648552573,-0.148252212078881
552,552,-0.206543232639765,0.171934203696788,0.952433922438451,0.020464204945849,0.104980981189469,-0.080569585886359,0.218643319795267,0.0979970261243244,-0.27644664206401
553,553,-0.206410729052497,0.173030573554238,0.951849957147435,0.0195441369605149,0.108439890634105,-0.0825650646447846,0.183325663964767,0.0650485954085454,-0.450275555740107
554,554,-0.206296108154218,0.174214244180333,0.951274634367707,0.0185164546400625,0.111081819058014,-0.0839434066233348,-0.0135232583702409,0.128927383667011,-0.414610336715048
555,555,-0.206200872066361,0.175514108833933,0.950698628939255,0.0179423820694613,0.114743576512684,-0.0835364192178471,-0.146424999375321,0.292377141870825,0.0874040826437122
556,556,-0.206092067471606,0.176974827600303,0.950114843730504,0.0185134260469952,0.12183314686077,-0.080133995455293,-0.25047466258458,0.342416229553323,0.154339141146733
557,557,-0.205967998828363,0.178577825881905,0.949529151086605,0.0190209165143068,0.131418730562974,-0.0757104143535622,-0.151963993921089,0.486307625034229,0.169920048170255
558,558,-0.205876973165615,0.180257125905878,0.948951466606452,0.0178872374026542,0.141468616235333,-0.0710868033400587,-0.0682030961559527,0.578068933911094,0.400004327487895
559,559,-0.205867396116623,0.181946627813569,0.948391903647604,0.0169252220693276,0.151066447267272,-0.0663336055840981,-0.0266100661810477,0.582796470643609,0.376522885166052
560,560,-0.205987696621468,0.183580135313487,0.947860750694173,0.0144392676953315,0.157188263403513,-0.0618965118831143,0.0491218045938195,0.566945316773225,0.306965067067906
561,561,-0.206268522674469,0.185128276919734,0.947339915266462,0.00996553658482109,0.161397847814387,-0.0576843936689293,-0.0507490430442556,0.332868436674907,0.210757958699865
562,562,-0.206677740428647,0.186636083508868,0.946823551356162,0.00460857793723606,0.164960416830602,-0.0532548014885831,-0.167974296026812,0.172864153831967,0.22373337880992
563,563,-0.207169060699043,0.188148069302663,0.946339591294417,0.000544968003336171,0.165762191457485,-0.0489704110331757,-0.212340118197963,0.170584595393901,0.153938647441439
564,564,-0.207695477581762,0.189707605001847,0.945914791493131,-0.00303721844439909,0.163592565437403,-0.0445427785068523,-0.249937568592361,0.292791081532571,0.463712206840498
565,565,-0.208209304659203,0.191356984633805,0.94557485752676,-0.00562544545452427,0.160107377018105,-0.0391111777522631,-0.178615069077863,0.326200878623074,0.833055214901356
566,566,-0.208759975791083,0.193124795658151,0.945338043451482,-0.00705244546724172,0.156811416891361,-0.0318436555421843,-0.170949460292154,0.268013505622274,1.10557344910371
567,567,-0.209377641487784,0.194980008010789,0.945186874254382,-0.00724163749385662,0.154728892755147,-0.0229974226439984,-0.247805047016636,0.17296131382201,1.07246261207054
568,568,-0.209985394350606,0.19687655840392,0.94509120570732,-0.00590875644061841,0.151531987602139,-0.0136458411561331,-0.355577989433775,0.321613773284366,0.921182242694094
569,569,-0.210506713940639,0.198770814408908,0.945018753411776,-0.00329873037470479,0.15031463281778,-0.0051761797177151,-0.402865218059366,0.273055408435565,0.506918408989476
570,570,-0.210865533828878,0.20062118163983,0.944935476200879,-0.00105897447484756,0.150419456262412,0.00106082306455789,-0.231922261999451,0.133135023597326,0.215900265769672
571,571,-0.211013099498842,0.202473962129468,0.944858918517706,-0.00150382376943474,0.146699343734263,0.00666899946829174,-0.0863048012925051,0.306494209410048,0.361518582531842
572,572,-0.210999703429877,0.20435936631476,0.944808200722164,-0.00369730694025436,0.139087066117486,0.0123027732053465,-0.0415814138813113,0.51663566363287,0.772659006650246
573,573,-0.210898372489755,0.206212029312342,0.94475153115519,-0.00224258758202309,0.13611278760557,0.0161481202834256,-0.223173683209703,0.312828249463229,0.75153938816491
574,574,-0.210782296559566,0.207965914374919,0.944657835409254,0.00184160562491712,0.13727524185813,0.0169946010157031,-0.501503095873795,0.169619786609754,0.350651817615928
575,575,-0.21072478542843,0.20955443430399,0.94449653024115,0.00751332432484077,0.140263208086502,0.0135357278778905,-0.594240486565773,0.279679905840194,-0.148613148392796
576,576,-0.210769940389566,0.21082850033154,0.944238431178807,0.0106500263866579,0.142671159362314,0.00296561763468499,-0.470882010471908,0.452729235638771,-0.702075604991932
577,577,-0.210869271010157,0.21183146784871,0.943905118841513,0.0097993980000014,0.146226298973093,-0.013928781409044,-0.228645029915121,0.428315430407245,-1.16484415749243
578,578,-0.210957306735442,0.21278532362087,0.943542460277392,0.00610930253223426,0.148419573441125,-0.0328197033945203,-0.0789802980266266,0.521014003159124,-1.4229281745414
579,579,-0.210968571538347,0.213912621982143,0.943195673226027,0.00113827456267047,0.146856512798913,-0.0497234218119351,-0.0403124094556541,0.584840452112823,-1.3608581176531
580,580,-0.210837594938689,0.215436680392012,0.942909157663477,-0.00240624692476546,0.147941072066056,-0.0606964921500204,-0.258115694307085,0.479726928514541,-1.30889602640249
581,581,-0.210489213134446,0.217529731289814,0.942684578933033,-0.00327753379717288,0.154914325092403,-0.0654852973394129,-0.49280148022478,0.342761503587588,-0.974888976608644
582,582,-0.209967764454791,0.220043262195953,0.942493890693826,-0.00206207736461336,0.16563095311659,-0.0665383398881193,-0.457796279940388,0.436543914480107,-0.533713277024761
583,583,-0.209386984847334,0.222720093523017,0.942336456658838,0.00342637259231078,0.175322852510075,-0.0640955123707329,-0.195114174110056,0.703213556821821,-0.0471887230121381
584,584,-0.208860470511203,0.225302852616882,0.942211180069241,0.0108916528900621,0.189923543995448,-0.0590406439752874,0.320595601589721,0.166187758907782,0.526087123080831
585,585,-0.20850166007367,0.227533938813082,0.94211643505636,0.0206615243549532,0.202962328720381,-0.0514824353321588,0.539456760024619,-0.388479034656324,1.09764091358514
586,586,-0.208372659024167,0.229368628001766,0.942021635869281,0.0326266424003101,0.203341247063943,-0.0393659399069233,0.833271695256937,-0.520957693823667,1.45734833530497
587,587,-0.208398778019566,0.230979252726661,0.941929818438216,0.048356436172361,0.190727362224255,-0.0223728724044924,0.97213679473546,-0.41142405616674,1.71120384219643
588,588,-0.208487824230841,0.232433188410098,0.941888613216159,0.0617401123377931,0.171940074994174,-0.00348586101944859,0.397898457365433,-0.493387669454026,1.5001595510634
589,589,-0.208547061712922,0.233797057755631,0.941944288427042,0.0697552912367462,0.149391067843448,0.0137302246516002,0.151054762276231,-0.506965029485033,1.25889276412399
590,590,-0.208483221426539,0.235136716885996,0.942141706744744,0.0722963221083561,0.128676209270289,0.0271892076017949,-0.235132091196428,-0.751611757277184,0.989160771153249
591,591,-0.208230852535523,0.236416576169741,0.942497266301767,0.0656282694477482,0.110051266452455,0.036007527153368,-0.560788431687751,-1.02031184007048,0.568729102098918
592,592,-0.20785211535269,0.237591276874569,0.942979704162308,0.0510033475884003,0.0937972566239483,0.0423022605388578,-0.623044521868915,-1.28219217884697,0.356715875788274
593,593,-0.207444782641412,0.238712219650848,0.943561830588652,0.0345360671325047,0.0787604273936907,0.0476324942047721,-0.589606190237556,-1.37912766998,0.0739189532964069
594,594,-0.207106507765984,0.239831674770602,0.944216994607704,0.0146082352480145,0.0652053709759254,0.0522987052936165,0.231567998595433,-1.07784856877779,0.425411494051591
595,595,-0.206934799128075,0.241002738794765,0.944919031822052,-0.00276628455061328,0.0549908531924328,0.0590247130016427,0.384728663059804,-0.930067839792877,0.551920019678306
596,596,-0.206977719373701,0.242204767226653,0.945691937808657,-0.0137083582410345,0.0494901617355236,0.064501762250171,0.561330780051223,-0.805692536148516,0.0581112431547612
597,597,-0.207170191865622,0.24340336921422,0.946553402559427,-0.0284240064546993,0.0492745927631123,0.0725165938645284,0.58417398275513,-0.725418178273405,0.130875906969727
598,598,-0.20743995763533,0.244631432010702,0.947467899193492,-0.0433896830754151,0.0507791751118277,0.0819458059702794,0.291562268864199,-0.487983912715065,0.200138687393843
599,599,-0.20771477617312,0.245921574944041,0.948399578286175,-0.05580182528403,0.0538193897963902,0.0911614520577576,-0.0140619510328391,-0.247429444522911,0.358434085296135
600,600,-0.20792242007941,0.247306201729084,0.9493122815176,-0.0632257457065068,0.0582749144671222,0.0982465289533902,-0.350589528924545,-0.164101729673037,0.510995505943108
601,601,-0.208036534605235,0.24885105020872,0.950223919673356,-0.0599432640024926,0.0624499892054343,0.0997468720571843,-0.190231227751302,-0.570558525826571,0.0821364659575702
602,602,-0.208105344620137,0.250535176571322,0.951158257869091,-0.0522863245573386,0.0679859817601272,0.0980517782912282,-0.0660847703378045,-0.629285937923076,-0.10394125024596
603,603,-0.208168492796191,0.252260587849451,0.952087449958434,-0.0424872497802417,0.0727557212941081,0.0951142846105954,-0.00819585064957554,-0.640953864693836,-0.32395909549177
604,604,-0.208265596987499,0.253928883309671,0.95298327013557,-0.0349806180990284,0.0785321476633521,0.0915966514975087,0.0769644664556823,-0.60639498073761,-0.301462166564098
605,605,-0.208436228358443,0.255441231966902,0.953817139541093,-0.030858287362283,0.0841917050767974,0.0887052227308419,-0.0370432065428575,-0.47585421569984,-0.344754931603391
606,606,-0.208698914691342,0.256768803659005,0.954595679922179,-0.0320615057001727,0.0873987083544891,0.0867157658145762,-0.0117082140352298,-0.502644030602996,-0.146320979444973
607,607,-0.209027324864297,0.257977181371816,0.955336960683413,-0.0358748709992985,0.088538873779178,0.0848478847235338,-0.0887658658719457,-0.450223000066924,-0.0666174389046777
608,608,-0.209393494696415,0.2591089703016,0.956029218571451,-0.0402505917533559,0.0882363994140953,0.0825157751723327,-0.0420153728193109,-0.438045757629957,-0.246887612129101
609,609,-0.209769208044365,0.260206941013125,0.956660499820168,-0.0453213564863181,0.087207533262333,0.0796064904591598,0.314257951727496,-0.512689116963575,-0.173326284484471
610,610,-0.210126010130544,0.261314014697009,0.957218677873708,-0.0460664874923163,0.0878911933483934,0.0761043014683521,0.13808335690294,-0.396313087415768,-0.399697601720233
611,611,-0.210482046882341,0.262450423393561,0.957683034063648,-0.0432827730331264,0.0906888979757587,0.0710511514388398,0.0301838390675319,-0.167956252785137,-0.788703825078711
612,612,-0.210855756758306,0.263587878924684,0.958060682103643,-0.0366664901734318,0.0946321555627523,0.0646100219003816,-0.0672013645920641,0.109018338139236,-1.11422096848484
613,613,-0.211218755838011,0.264696345935342,0.958380935021086,-0.0287796661374729,0.0996090393010464,0.0574447975673016,-0.0202620047331203,0.301347001507793,-1.03227647590663
614,614,-0.21154240800725,0.265745428214617,0.958672844827634,-0.021027615044442,0.103901924711886,0.0501222407527253,0.0720542776445906,0.361457586213785,-0.676033273127277
615,615,-0.211797857290534,0.266704410860385,0.958965251471575,-0.0153307682429597,0.106101634309466,0.0430924999623508,-0.0212829209588334,0.153468328633506,-0.164953530667763
616,616,-0.211974530923803,0.267567859715198,0.959256025605748,-0.0122684658009493,0.105836924312183,0.0373145698143993,0.0633809453631219,-0.048607907220647,-0.0489968249335782
617,617,-0.212090630262103,0.268355705894505,0.959524801259197,-0.00994732935215188,0.103823290577307,0.032527736617689,-0.0408537522811865,-0.133127001381401,-0.115059167080555
618,618,-0.212160351902439,0.269075257392024,0.959772992539023,-0.00800626639619955,0.09953891150439,0.0285854636936656,-0.16699509748178,-0.127950108650984,-0.245704964412957
619,619,-0.212197940482738,0.269734011315155,0.96000206644911,-0.006022705961937,0.0930348442877438,0.0252906024003501,-0.236696975104434,-0.0755316434556765,-0.437429180398989
620,620,-0.212217696921845,0.270339602457334,0.960213535101251,-0.00371635796709962,0.085746512570126,0.0218447468930366,-0.240268849681965,-0.0478277143190712,-0.489333942648452
621,621,-0.212222637174,0.270902657283392,0.960404153461382,-0.0032720508136097,0.0800612911971852,0.0173173077504717,-0.160916884675226,-0.099068552308419,-0.539032931242039
622,622,-0.212202643720398,0.271418102074268,0.96057243478071,-0.00487032864837726,0.0728361665339181,0.0125613488144261,-0.0151367609194424,-0.072276231654932,-0.43661068149385
623,623,-0.212152422788109,0.271870085345759,0.960722587384203,-0.0064488273354718,0.0663879128841461,0.00753633700330132,0.0592204115290957,-0.0932235962845172,-0.491788087861088
624,624,-0.212066762814016,0.272242766860476,0.960858851778729,-0.00618841186584824,0.0586120650696354,0.00279267993863449,0.0868505217016225,-0.114019483111094,-0.394805166391869
625,625,-0.211940537182508,0.272520339782287,0.960985501657552,-0.00324486693920166,0.0500614434019362,-0.00140975195550537,0.000986637561707159,0.015068967098113,-0.205213393969906
626,626,-0.211782320900428,0.272692049256299,0.961111209042149,0.00381477928323337,0.0426177672795713,-0.0055744037127444,-0.101986764348983,-0.0952440164692651,-0.511955111714384
627,627,-0.211595569818338,0.272768514105463,0.9612331895321,0.0121738056456552,0.0339943630759612,-0.0094958208606576,-0.0158699750947145,-0.286672868332951,-0.747745970969892
628,628,-0.211367603595323,0.272765996114769,0.961338573695156,0.0208336417907863,0.0238723451547488,-0.01288286682986,0.0934638235904238,-0.422098943599077,-0.805716069730592
629,629,-0.211085798362522,0.272700681408723,0.961414478278563,0.0291878339084918,0.0132635563589763,-0.0157490445509688,0.104556553318816,-0.486739204505953,-0.749701014025511
630,630,-0.21073755323819,0.272588652661983,0.961447976649358,0.035756010761257,0.00304564492729857,-0.0181323684436736,0.00899237768492515,-0.482014440600933,-0.431534391395172
631,631,-0.210288401282746,0.27243517911551,0.961443137510513,0.0396976340002645,-0.00652531737924224,-0.0198625079095266,-0.0431632585979934,-0.466405603426587,-0.348925602162887
632,632,-0.209747256436893,0.272229366740073,0.96140896664724,0.0427067047506116,-0.0160343179461581,-0.0207614637472834,-0.0539451847422965,-0.472991347018861,-0.236872700066922
633,633,-0.209166575721266,0.27196304214341,0.961339907952471,0.0450489709002244,-0.0251681123618496,-0.0217061047654038,-0.077579393625698,-0.505924285427447,-0.175972712206204
634,634,-0.208598800089222,0.27162815484423,0.961230406883782,0.0463243270895726,-0.0326331750211018,-0.0233228812257436,0.0137717290663619,-0.553099880578879,-0.15610171288137
635,635,-0.208096345625856,0.271216797137479,0.961074908829964,0.0466140333820075,-0.0403990235370575,-0.0253002044199483,0.107643762231438,-0.431595944502469,-0.149273788286624
636,636,-0.20766374879259,0.270720874592796,0.960878523413059,0.0453110521317992,-0.0475355062437434,-0.0281995450096563,0.122630086601445,-0.315621152239251,-0.154860774233028
637,637,-0.20726672027014,0.270145800561301,0.960645654662557,0.0429736902450072,-0.0527419248217776,-0.0318848500516042,0.0277133332338981,-0.297370664036764,-0.274569248803059
638,638,-0.206899392266768,0.269503985279109,0.960369705746512,0.0398006186102556,-0.057594079630487,-0.0358869099147939,0.0764978128518622,-0.258345758419813,-0.407700349836411
639,639,-0.206555863677358,0.268807759714773,0.960044072733808,0.0361030214765031,-0.0629176579289477,-0.0398807509858352,0.0830147774171161,-0.220380178859839,-0.594750109931282
640,640,-0.20623019241171,0.26806936934655,0.959662124097166,0.032132818461674,-0.0676879163949663,-0.043862816068737,0.222360811745488,-0.256201232398885,-0.564491970221429
641,641,-0.205928124281169,0.267289283694728,0.959215977743567,0.0287298798732002,-0.0722995268004715,-0.0476483762707992,0.287973528916725,-0.152775721978653,-0.761073643695464
642,642,-0.205654341140263,0.266459198909291,0.958711052241754,0.026110165487745,-0.0775329585674103,-0.0511816331360804,0.244321889467369,-0.16010515653711,-0.841687959289257
643,643,-0.205401170485278,0.265578233613211,0.958160572704645,0.0237177845909084,-0.0829759825002584,-0.0546374126324491,0.290391266488251,-0.249268734929381,-0.702550595356743
644,644,-0.205160794831699,0.264645655110322,0.957577658287109,0.020952299848935,-0.0893343941535429,-0.0577505349486047,0.279587183224973,-0.311487649946826,-0.377428348761387
645,645,-0.204925247123855,0.263660897488164,0.956975313248615,0.0185279960767746,-0.0958347686577697,-0.0600517365047035,0.254839196678372,-0.456986119105158,-0.0565989127478695
646,646,-0.204708954509162,0.262616274508428,0.95634274200714,0.0174589223758717,-0.102722503573773,-0.0618926257981313,0.212525726616362,-0.432287761338598,-0.128246265948469
647,647,-0.204517612186453,0.261512486696374,0.955672259953573,0.0149132289376158,-0.108584624717857,-0.0645819366360486,0.382731753900989,-0.538224150420254,-0.160727133915936
648,648,-0.204329992001205,0.26036160101291,0.954981389043216,0.0117204793155366,-0.114437178715833,-0.0671104763350378,0.556618490896991,-0.590117511547428,-0.106631001515001
649,649,-0.204124797837398,0.259175567181356,0.954287556821869,0.0105023912838229,-0.12232401096094,-0.0678931394172092,0.408903271502542,-0.412240415547747,-0.200323811573182
650,650,-0.203880671317158,0.257966212805629,0.953608112524978,0.0105632817942138,-0.127840837822328,-0.0678789708713331,0.0778877894889944,-0.325437016440061,-0.182556847954959
651,651,-0.203572431029116,0.256735663628475,0.952940802519902,0.0117290366143652,-0.131458195920366,-0.066031079640315,0.017415254831507,-0.372231254071914,0.144805717645555
652,652,-0.203214611603968,0.255476083942202,0.952275262995317,0.0149816947978501,-0.134847785472472,-0.0626604616028251,-0.0842564773291764,-0.301496481619478,0.232156104639915
653,653,-0.202845215274191,0.254184319939267,0.951616374880082,0.0177472339028795,-0.136384273093617,-0.0589443911504556,0.0504566918839402,-0.338897995700872,0.425653990331536
654,654,-0.202501999408585,0.252857260157809,0.950968616358191,0.0205244678226764,-0.138188939726475,-0.0552949737567874,0.070955333232613,-0.346278017580215,0.46074829896357
655,655,-0.202222471445479,0.25149180937453,0.950336047676768,0.0224078096646473,-0.138896556967628,-0.0530673690253186,0.157217873855666,-0.485153276390677,0.249336328535779
656,656,-0.202011784068079,0.250105321698749,0.949716002888084,0.0222424870363312,-0.139233490890784,-0.0524757830426002,0.314726076545443,-0.460627948452184,0.107430562817593
657,657,-0.201844505122666,0.24870000110525,0.949106076368722,0.020919135576357,-0.138975365587581,-0.0533617689358564,0.245954613172892,-0.369198893755792,-0.0927237064658052
658,658,-0.201712203926708,0.247249994743697,0.948510574206303,0.0183518190936181,-0.139033375330093,-0.0549064160534261,0.0738116102439006,-0.250648012260635,-0.206585918620827
659,659,-0.201606598885707,0.245729440130027,0.94793399041887,0.0158936099209342,-0.139266753326853,-0.0552409392491965,0.0170249201594933,-0.341085257474863,0.067849060953233
660,660,-0.201519582426852,0.244112477048778,0.947381058018853,0.0137808819649602,-0.140981427359615,-0.0529015313567743,-0.0735726950983949,-0.252074569683353,0.00287109422359104
661,661,-0.201412503619438,0.242357923842243,0.946843323946096,0.0117479898303194,-0.143057306890387,-0.049837898397413,-0.0570829001565759,-0.402278991421165,-0.156001080951267
662,662,-0.201291196552661,0.240483053082112,0.946319644467199,0.0102432145520581,-0.146735756867977,-0.0455629139739364,0.0615657132557681,-0.587820306845604,0.38299801281504
663,663,-0.201213944705414,0.238549683178391,0.945824713251881,0.00814085874270283,-0.154115490367207,-0.0399646259750668,0.275054581210718,-0.471718191768019,0.215285946726783
664,664,-0.201238309367148,0.236619636219786,0.945371403321724,0.00525108563582827,-0.163644013950999,-0.0352335121816662,0.176077984021295,-0.347632376826402,0.579652814143968
665,665,-0.2014211941473,0.234754775480851,0.944970815398293,0.00107201879135003,-0.170087129958571,-0.029919884267589,0.102965587535009,-0.314259195866601,0.709311741900646
666,666,-0.20181728122457,0.232968179398515,0.944633084122939,-0.00612152374935329,-0.171759816395421,-0.0240334867348401,-0.0460747137478124,-0.213982623397662,0.83365540650652
667,667,-0.202387779884525,0.231218980844994,0.944349235928835,-0.0167916246025623,-0.169749523352298,-0.0170257151900304,-0.131102308036017,-0.14519620859539,0.854432790314499
668,668,-0.203048939569584,0.229487944914818,0.944099916594329,-0.0289224101913366,-0.166027667996468,-0.00911709057961344,-0.398507970389879,0.0639025282983896,0.789067489559523
669,669,-0.203716923609646,0.227755427637639,0.943864995879806,-0.040425465677,-0.160830895598293,-0.00176661937960105,-0.59223198939155,-0.115948672476446,0.590495475310489
670,670,-0.204307821088879,0.226001402569084,0.943623745009922,-0.049581292032415,-0.156544645525252,0.00354890963326118,-0.466651715842818,-0.167679797849718,0.391526576296586
671,671,-0.204808629649074,0.224169440047591,0.943369492375839,-0.0548093859928945,-0.156515535986758,0.00662993502379688,-0.45312610680771,-0.0865119370623803,0.0565385565491402
672,672,-0.205274762328961,0.222272603098349,0.943113578491028,-0.0592502555331912,-0.159355011273469,0.00795649903316477,-0.421912630319998,-0.196650053370738,-0.0642554525622336
673,673,-0.205724949864262,0.220394802694193,0.942862521658227,-0.0650346197024804,-0.163333839443908,0.00777602907503563,-0.440190200233794,-0.29934343050698,0.057648056638464
674,674,-0.206177973898015,0.218619887345277,0.942623471631306,-0.0728095257270831,-0.165310751377152,0.00629342534561584,-0.27903159699342,-0.464649017919602,0.412409971870385
675,675,-0.206652659983722,0.217031730596713,0.942404174980394,-0.0773020460746431,-0.166350679206704,0.00383697615231776,-0.616801708553643,-0.397261875696501,0.325258058441685
