,Frame,CoM pos x,CoM pos y,CoM pos z,CoM vel x,CoM vel y,CoM vel z,CoM acc x,CoM acc y,CoM acc z
0,0,0.0103803936712786,0.0950241442591237,1.00036980256814,-0.00549462741405987,-0.0045129798949045,0.00286756191096349,0.000602293472388487,0.00679119043163925,0.000560968124974625
1,1,0.0102360382292874,0.0948747772953763,1.00038650051374,-0.00569832374584083,-0.00396150640382954,0.00304707430331626,0.0465801101546557,0.026228597670278,0.0329723368155907
2,2,0.0100931977491408,0.0947230225181947,1.00040363839554,-0.0053426675741988,-0.00342350657869801,0.00324359768404345,0.00319294526026589,0.0536075746062424,0.0168724289188392
3,3,0.00994957487753881,0.0945724587958495,1.00042059289125,-0.00502974574965551,-0.00298879473898016,0.00343766786273285,-0.0333664321285769,0.0675924417967391,0.00200481247849145
4,4,0.00980287515778986,0.0944266653283693,1.00043673604421,-0.00482651104400305,-0.00264812052565712,0.00361433318513148,-0.0571008981120263,0.0712402976565563,0.01318519830843
5,5,0.00965080678876396,0.0942892215883254,1.00045143576301,-0.00523401944106208,-0.00242411322746507,0.00377094259915753,-0.0262013070912528,0.0562370729633326,0.0267078460192195
6,6,0.00949217483656146,0.094159560712458,1.00046443046747,-0.00597836072007826,-0.00209216662838981,0.00386023954889624,-0.0418383577258658,0.0846371262655024,0.0274928875932708
7,7,0.00932851260671378,0.0940352965832642,1.00047613319675,-0.00711892663939706,-0.00206666182385706,0.00393239731506865,-0.015135247352814,0.0624157581596519,0.00465122121825187
8,8,0.00916162155133863,0.0939172801646902,1.00048692295761,-0.00859788805179581,-0.00160337935980987,0.00399287187847626,0.0238068536991635,0.0833978940287387,0.0205973497600512
9,9,0.00899330214188909,0.0938063627261494,1.00049718058356,-0.0097175973886658,-0.00116225572894311,0.00406483262480369,0.00537153419833727,0.0792843247739913,-0.0177114650961436
10,10,0.00882535399715401,0.0937033958046575,1.0005072883687,-0.0103441084274731,-0.000860838622322681,0.00417547498658474,-0.0132587639211884,0.10676220127955,0.0289016559121337
11,11,0.00865637740226479,0.0936104461746331,1.00051700327835,-0.0105456661441102,-0.000245168007116747,0.00435125884740079,-0.00632301235942862,0.107536472423615,0.00825125950389914
12,12,0.00848517465766931,0.0935269465774804,1.00052606872268,-0.0105212014510363,0.000239808584686347,0.00458392050867449,-0.0200647619034293,0.110730193458205,0.0283949516697691
13,13,0.00831384744553488,0.0934497975524178,1.00053484790419,-0.0102800683259167,0.00124412370945578,0.00480081145912043,-0.0327548662349612,0.0573812851343277,0.046226731330154
14,14,0.0081444970494718,0.0933758996623691,1.0005437041555,-0.0102624606802949,0.00187895959929416,0.00500725193637719,-0.0585045690142302,0.081115728487246,0.0511435101700052
15,15,0.00797922443080058,0.09330215363594,1.0005530008712,-0.0102371473743423,0.00227799159609012,0.00511276930530012,-0.0347546857389244,0.0685256891456585,0.052981470551035
16,16,0.00781886726842288,0.0932274207253735,1.00056297066475,-0.0105850256950922,0.00265044037455624,0.00512072141147427,-0.0168337635206908,0.0677175594529992,0.0177937640295987
17,17,0.00766202564398114,0.0931537674883412,1.00057337066347,-0.0110401854861976,0.00264619029279213,0.00505770491492461,-0.0270067597953509,0.104381182212277,0.019061527925343
18,18,0.00750744360706373,0.0930829025989117,1.0005838511458,-0.0115295986190366,0.00257566109453992,0.004947375399174,-0.00943810147893422,0.10884355098419,0.0201986130711254
19,19,0.00735386489644134,0.0930165344869605,1.00059406229855,-0.0117173716566499,0.00229137439010038,0.00483494340083469,-0.00933616870084311,0.125909389416133,0.0160065538089557
20,20,0.00720003300164136,0.0929563713237281,1.0006036542379,-0.0120252909572589,0.00212617789349131,0.00474494020130023,0.000748917992023049,0.138359006139705,0.00199451049154151
21,21,0.00704465774063985,0.0929022643677467,1.00061225658692,-0.0112543910939205,0.00184985037580166,0.00465711987784255,-0.0462495223522894,0.126898257552382,0.00554336227286361
22,22,0.00688857681567839,0.0928530746872582,1.0006201022332,-0.0106382810826064,0.00170052500064399,0.00456067426819126,-0.0325669293585127,0.11182169623709,0.00606485724236605
23,23,0.00673372526240441,0.0928090250811419,1.00062774639711,-0.00995535841509161,0.00175125406594155,0.00447022884667085,-0.0124332254388596,0.101594320891638,0.0078468564219765
24,24,0.00658203796473621,0.0927703385150114,1.00063574441083,-0.00915231477125125,0.00189810949018632,0.00442623446194233,-0.0620615076956062,0.0921253587138184,0.0289057138261821
25,25,0.00643544962130467,0.0927372381695266,1.00064465158454,-0.00860548470477918,0.00208429065797398,0.00444424391158292,-0.0373652407632439,0.0529605556892911,0.0612468062147774
26,26,0.00629395657353505,0.0927111466920934,1.00065476817714,-0.00851396945874602,0.00239664510860457,0.00459197054930014,-0.00802461046518603,0.0204953040544479,0.0695093395717409
27,27,0.00615626840359458,0.0926919161009424,1.00066572424864,-0.00866185387450615,0.00295288958332444,0.00485294218443886,0.0114591278500055,0.0132713073109148,0.058197116819304
28,28,0.00602238983162062,0.0926774135849126,1.00067706937719,-0.00888815013502842,0.00331759926893235,0.00513019697807819,-0.00793638399903845,0.0182939343835311,0.0365145109827534
29,29,0.00589232609107891,0.0926655058039397,1.00068835270074,-0.00912996298418119,0.00397977389209652,0.00531948857941543,-0.00372508189335723,0.0204821485219696,0.0387278435509529
30,30,0.00576608291068084,0.0926540588451146,1.00069912309513,-0.00927011024443143,0.0044509384313008,0.00532894507645834,0.0289732955511705,0.0837923027064654,0.0162227747259993
31,31,0.00564472818768842,0.0926431455619005,1.00070943124944,-0.00892745286286931,0.00454832603060382,0.005087409467829,0.00751803568481583,0.0987464925401856,-0.0183704754906851
32,32,0.0055282586720588,0.0926341885794509,1.00071957752028,-0.00813013900702067,0.0044753494992993,0.00463598870064399,0.0188165346344207,0.116018436952699,-0.0245686106064231
33,33,0.00541507362281666,0.0926270781120418,1.00072948530374,-0.00714821439405452,0.0041479423431977,0.00411482566249793,-0.00169035265567471,0.149286432826029,-0.0100988354266235
34,34,0.00530357221747865,0.0926217041354661,1.00073907776453,-0.00612767719336359,0.00396422895370052,0.00365455298119167,-0.0093662041884611,0.119613760880503,-0.0229754763372888
35,35,0.0051921535536175,0.0926179563498921,1.0007482777476,-0.00540090221035272,0.00402033849315877,0.00337048984269529,0.00714394853557262,0.0812704439754795,0.00792845921733833
36,36,0.00508075482748679,0.0926176253302117,1.0007569922322,-0.00492283165043737,0.00381788021004557,0.00331093208996389,-0.0069327393076642,0.0506696261646637,0.0387137123953793
37,37,0.00497044347182921,0.0926207838378763,1.00076527250897,-0.00503380416905576,0.00385125215736404,0.00340730496426777,0.0406667475084007,0.0435761240948823,0.0323029126013428
38,38,0.00486131386272211,0.0926247447864213,1.00077325771451,-0.00498624365671206,0.00384366904525672,0.00358189098495508,0.0192124160101969,0.00622412171204412,0.0550036167319677
39,39,0.00475346042387204,0.0926268213964374,1.00078108684768,-0.00500431310301523,0.0035139613863087,0.00375647385924822,0.0285649037877531,0.0150337629087733,0.0235563337256241
40,40,0.00464697764854593,0.0926243272103395,1.00078889874782,-0.00504238666837298,0.00375195239723791,0.00386183409151267,0.0472249040297534,-0.0138040203018612,0.00217228670947483
41,41,0.00454170801348402,0.0926165989209209,1.00079674542725,-0.00492356640137952,0.00377781848913895,0.00390274766520177,0.0306937672785275,0.0176901963976126,0.0198433566699506
42,42,0.004437588759222,0.092605427388931,1.00080453410449,-0.00463891977185277,0.00324719873415139,0.00393602474909605,0.0504673455520483,0.0614850204405065,-0.00986606483483434
43,43,0.00433485647291464,0.0925918077138046,1.00081218631484,-0.00432165608409197,0.00291076462966482,0.00394640475343746,0.00618864398389508,0.0352147037905143,0.0288681682654999
44,44,0.00423374760585934,0.0925767350966787,1.00081962356074,-0.00419242340145512,0.00244475208351203,0.00393264884971297,0.0204669177248824,0.0567682964925881,0.0305980124569061
45,45,0.00413449847575568,0.0925612048467678,1.00082676730931,-0.00425215372714698,0.00218448677163567,0.00388063503037786,0.0302008149364454,0.0611055945561613,0.0298566770306054
46,46,0.00403781254409199,0.0925457275315973,1.00083375980127,-0.00426667552546798,0.00199936817983157,0.00378897942512476,-0.0314141542510435,0.000595291603271367,-0.0079655823227528
47,47,0.00394353212739454,0.0925296398324939,1.00084065318353,-0.00447960779574859,0.00193281544276351,0.00364976893014335,-0.039470242745008,0.0131506286117956,0.00100524527876906
48,48,0.00385060179207676,0.0925121762721844,1.00084723382205,-0.00501402757046922,0.00176593236137856,0.00347710005180319,0.0445168929559594,0.0232365498965263,0.0101186002733308
49,49,0.00375796617123169,0.092492571278084,1.00085328813842,-0.00545862254795896,0.00159167593535499,0.00329980700774194,0.0440452538407728,0.0308975500933877,0.00493641907902272
50,50,0.00366456997888213,0.0924700591545547,1.00085860257991,-0.00596213038776352,0.00162718305327046,0.00314089263740988,0.0846714210373345,0.0320196757991037,0.00413530965465308
51,51,0.00356687320191991,0.0924444808441393,1.00086286235196,-0.00608941711956843,0.00193440088346582,0.00297318468345993,0.0519753321044979,0.0433026561913545,-0.00420357231221502
52,52,0.00346557955005743,0.092416346633169,1.00086620977117,-0.00598271055761739,0.00196097038297576,0.00278524514773225,-0.00547649044311501,0.0725454574255942,-0.0182546462145051
53,53,0.0033659992908455,0.0923858948858073,1.00086911692765,-0.00616482212189665,0.00208962235161989,0.00261558929933322,0.0144878739618098,0.0596824850307266,0.0181441311575949
54,54,0.00327344250829322,0.0923533642243121,1.00087205591991,-0.00601760773109636,0.00220251657657245,0.00250543756137643,-0.0285729321800718,0.0670168567657316,0.00840849433250896
55,55,0.00319321909009137,0.0923189935101734,1.00087549886642,-0.00540526725792165,0.00211403926466784,0.00250818810608533,-0.034199658885919,0.058012364404808,0.0112915231412884
56,56,0.00312699775993806,0.0922816744712364,1.00087940010002,-0.00492786567413749,0.00181449129784665,0.00268189779923503,0.0454171076762945,0.0214300737043997,0.0650578991333658
57,57,0.00307123831931518,0.0922412481034814,1.00088344477924,-0.00385493297651021,0.0013327220635199,0.00299442181490151,0.0101903433382488,0.0215746151753992,0.0673860359692237
58,58,0.0030234372258005,0.0921993771920737,1.00088770123627,-0.00272887050112392,0.000723738389049364,0.00336145120839794,0.0424713626281426,0.0400516674324941,0.0530712997237191
59,59,0.00298109106454856,0.0921577244602017,1.000892237783,-0.00167206203487978,0.000133936081929937,0.0036917611368994,0.0357435007343794,0.0343361187034926,0.0383236388821254
60,60,0.00294169653482493,0.0921179526173257,1.00089712272812,-0.000799543968167275,-8.60363814155595e-05,0.0039126575712034,0.00353337926108069,0.0306881037471585,0.0207727460671405
61,61,0.00290749472331995,0.0920814442547298,1.00090269031007,-0.000453941633193962,-0.000281771921521928,0.00399037231441473,0.0343357350051813,0.036381928946895,0.0583916340067959
62,62,0.00288015447775707,0.092047090890144,1.00090889487569,-0.000460717955331147,-0.00016480967453275,0.00398321090767626,0.0250316785176857,0.0600858864032251,0.0336108664283892
63,63,0.0028563142039281,0.0920128186174119,1.00091523496693,-0.000312444915627365,0.000214284653713609,0.00393603688047399,0.00225915713358946,0.0161033449170441,0.010440352180318
64,64,0.00283261235074839,0.0919765534875265,1.00092120916974,-0.000278423504640001,0.000220971543425298,0.00386800106278869,-0.00712463624225956,0.0394798208619763,0.0067269882230957
65,65,0.00280568741899561,0.091936221496466,1.00092631610189,-0.000389624706128803,0.000241979327677276,0.00381738538027461,0.00344535830431098,0.00605118286830981,-0.0125596567547617
66,66,0.00277386446227974,0.09189240407737,1.00093040898023,-0.000345464983487048,-5.51490289613315e-05,0.00376193036356893,-0.0120075000833595,-0.00515177690122722,0.0162545726049209
67,67,0.00273938441710447,0.0918464837817177,1.00093382216275,-0.000470546826155419,-0.000586922391559058,0.00368558459452439,0.00055704905228652,-0.0012923785042959,-0.00531769349687265
68,68,0.00270475972495511,0.0917975882826467,1.0009367759872,-0.000886015036702288,-0.00138220211719913,0.00359755311816053,0.0863509680872615,0.0350249483413739,0.0232606454267296
69,69,0.00267250296820865,0.0917448453274013,1.00093949076958,-0.00100917388609652,-0.00195962844665023,0.0035426589881279,-0.00495369802585653,-0.0260260926976693,-0.00660771657799342
70,70,0.00264512689135364,0.0916873827223577,1.00094218681258,-0.00143771728465597,-0.00234600887363579,0.00350399777097749,0.063565097185849,0.071180576224741,0.0311799671475414
71,71,0.00262616728208905,0.0916214177649982,1.00094464671849,-0.00147792527063965,-0.00248432568376933,0.00355196400301945,-0.00157868234673532,0.026280168462034,-0.00285667655406582
72,72,0.00261394928099469,0.0915475319248769,1.00094672396615,-0.00157949687595402,-0.00264798114287252,0.00363823744235343,-0.00798058188976778,0.0478858261178577,0.0265688691015491
73,73,0.00260316991445928,0.0914713991967549,1.00094874479854,-0.00155926972168821,-0.0027699644477753,0.00373019499631876,-0.0279460596143883,0.0457471992031347,0.0205207384138745
74,74,0.00258852627808279,0.0913986934652797,1.00095103493494,-0.00164843087920297,-0.00282975623182127,0.00378900078776334,-0.0436164154465351,0.0533265184991069,0.0299343735110256
75,75,0.002564715396653,0.0913350885008571,1.00095391975064,-0.00178467646958101,-0.00272954995699251,0.00376380818385713,-0.00640398084842523,0.0262264019532883,0.0384457632632116
76,76,0.00254011447208983,0.0912772645545211,1.00095780430727,-0.00170153511862728,-0.00281806759408454,0.00365510542646157,0.0313791664987573,0.0489344308490004,0.0167805946823956
77,77,0.00251825920507269,0.0912214388872921,1.00096247163431,-0.00115688041230869,-0.00303890614072721,0.00346566108631758,0.022094084879338,0.0259901818075263,-0.0156997457526937
78,78,0.00248658385916675,0.0911725904913743,1.0009673137542,-0.000910920969345424,-0.00288181311492208,0.00323684828963517,0.0569161537353184,0.0728696305758183,-0.0158121615605684
79,79,0.00243252182278304,0.0911356979461523,1.00097172292546,-0.00102252583706001,-0.00246555769263841,0.00302727809828877,0.0226848130886197,0.0705505264805592,-0.028749625327255
80,80,0.00234350485641479,0.0911157387590497,1.00097509366582,-0.00201152625619895,-0.00109254349443106,0.00288571325406483,-0.0432586634309011,0.0721543895998803,0.0347491823139846
81,81,0.00221900219139054,0.0911194807414004,1.00097820847088,-0.00406700008998066,0.000997607694422647,0.00286165493125438,-0.0390551415777535,0.147708455267377,0.0349005654669918
82,82,0.00206738373278522,0.0911436011498169,1.00098148240489,-0.00719382352870302,0.00356865326612839,0.00290674500374964,-0.00090022421727611,0.19867878795602,0.00874119144704925
83,83,0.00188943429988228,0.0911779401959903,1.00098376184853,-0.0109126195308789,0.00624773602726171,0.00295891071147345,0.00466669487773909,0.259030893404933,-0.0116147587906476
84,84,0.00168594662519766,0.0912123382321864,1.00098389060453,-0.0145126468846478,0.00895560683510304,0.00292056972035219,0.115597972061652,0.20426767774926,-0.00685412987486621
85,85,0.00145772242707433,0.0912366361762522,1.00098070880101,-0.0174312911173506,0.0115872961380523,0.00275204926566434,0.0718655642581504,0.152645289600671,-0.0285768663739248
86,86,0.00119367058169532,0.0912398712886755,1.00097312958628,-0.0191437950945395,0.0128041778032615,0.00230095290676429,-0.0459831587522202,0.122513871963212,0.00176885659937279
87,87,0.000893270247887089,0.0912288080238678,1.00096194574897,-0.0198665335818225,0.0130326589426352,0.00161893830770586,-0.0513607974074617,0.0745193544014821,-0.0273398794509886
88,88,0.000573175852757374,0.0912198812409615,1.00094880918816,-0.0205571869078265,0.0127962422624406,0.000944825939372547,-0.0481324443786076,0.0386246329332845,-0.0345029546030255
89,89,0.000250029169201628,0.0912295306219106,1.00093536386413,-0.0209964874838092,0.013026250505887,0.000533707660705669,-0.188671212270018,0.0474727941070372,-0.0430665973533971
90,90,-5.95405688663042e-05,0.0912741975533964,1.00092324681245,-0.0220071913855278,0.0142026880940707,0.000643142843351827,-0.245798931549672,0.0897109157685012,0.0591374565076246
91,91,-0.000361366598839071,0.0913590543487335,1.00091205042905,-0.0241487744883021,0.016598186866935,0.00163894952863055,-0.253011834788705,0.171914171937588,0.104388022366718
92,92,-0.000666553936392175,0.0914731219099097,1.00090070593856,-0.0266939284274826,0.0192087319843785,0.00336198072615572,-0.300468970398931,0.302667241911861,0.138765147664585
93,93,-0.000966386810792912,0.091608617303078,1.00088984052676,-0.0296349468229626,0.0225516116065331,0.00524510195820812,-0.318571029633445,0.244507496656275,0.212321062123657
94,94,-0.0012521434053231,0.0917577675443197,1.00088006010696,-0.0328962522368112,0.0262408636669156,0.00674327077780664,-0.217962039008905,0.205120815645788,0.208942488608054
95,95,-0.00151509294761233,0.0919128099369497,1.00087195078391,-0.0353517226768938,0.0294153711017978,0.00727101606845409,-0.0751517471430888,0.314627054426539,0.15644442111529
96,96,-0.00173607709011627,0.092076555846013,1.00086737323818,-0.0356796448526538,0.0313593531678365,0.00660240976943877,-0.0990200338917475,0.379066698192757,0.0327876197178126
97,97,-0.00192090496517912,0.092254154715331,1.00086592588015,-0.0339678944955746,0.0326960062733246,0.00510420543444921,-0.190186533034031,0.447545530331499,-0.101961565617847
98,98,-0.00209829008592097,0.0924413737131958,1.00086478961063,-0.0314801797897339,0.0334363695368683,0.00317847144818532,-0.305776391728049,0.404716090959061,-0.193100919608803
99,99,-0.00229695432993951,0.0926340051414843,1.00086114701603,-0.0300396544267059,0.0340802369345537,0.00120645276640526,-0.231229141267322,0.330725998039089,-0.15743601681352
100,100,-0.00254563254405663,0.0928278714722915,1.00085218163895,-0.0305499580750316,0.0348323923286754,-0.000414284020131381,-0.0651994015727665,0.306339014132162,-0.1393684638131
101,101,-0.00284588603419341,0.0930260876822529,1.0008408491373,-0.0321451235955833,0.0351867877154075,-0.00155512289927256,0.0451358072050769,0.30812994553806,-0.159020511261008
102,102,-0.00317856469486298,0.0932314849545948,1.00082901811436,-0.0332105811989636,0.0346328117701444,-0.00245620674077776,0.0227636214793243,0.327870865393028,-0.186032683418989
103,103,-0.00354134458980334,0.0934394725620201,1.00081227038698,-0.0345893630166764,0.0339240610110337,-0.00327412268821407,0.0491954114633086,0.320390235000069,-0.178069714245596
104,104,-0.00393189961160113,0.0936454492350288,1.00078623048993,-0.0360593985938348,0.033547191844781,-0.00414821786053018,-0.0525957677016214,0.218893255661574,-0.100324378860202
105,105,-0.00434790103592228,0.0938448076070805,1.00074658448773,-0.0381321204908918,0.0332051799790906,-0.00522670446778496,-0.0643517743011142,0.230285473294146,-0.012652975329002
106,106,-0.00479244453956539,0.0940565036977212,1.00070566373793,-0.040947066126333,0.0335045608608591,-0.00640405158917748,-0.0805043918202782,0.228448262378054,0.0105590630318312
107,107,-0.00526708747595669,0.0942836604419356,1.00066643907914,-0.0440372758020813,0.0342626996213685,-0.00757888453332011,-0.0653683831770411,0.2965477965394,-0.0302915294327173
108,108,-0.00576719795014161,0.0944979091085506,1.00061075921612,-0.0470540097943709,0.0347776574822655,-0.00889880506757533,-0.047952337162218,0.29332040097787,-0.147274705726641
109,109,-0.00628815493051797,0.0946708715510813,1.00052071407231,-0.0491640412008956,0.0337220725943325,-0.0104322090565806,-0.0606586335351994,0.306089148525596,-0.389276586041363
110,110,-0.00682535130085075,0.0947741461373069,1.00037877068902,-0.0515754819952223,0.0306880393638535,-0.0124200090855078,0.092988742818246,0.199457974437715,-0.436190999612443
111,111,-0.00739780316288554,0.094823700853124,1.00017942702005,-0.0550892859983324,0.026085350611746,-0.0147516052030541,0.213915076738038,0.0541405094075899,-0.305327376767387
112,112,-0.00800864341885768,0.0948384573843128,0.999935622647396,-0.0579570997796449,0.0192502390475193,-0.0172330121471969,0.138489482676652,0.00395123891639864,-0.23985595347287
113,113,-0.00862946486774346,0.094794424171834,0.999658133580984,-0.0588898773751475,0.0101401881276048,-0.0198806218713536,-0.0765573783189842,-0.0426599378343992,-0.267083490440265
114,114,-0.00923187455575682,0.0946676388419468,0.999358113777189,-0.0578032938072879,-0.000108746670053421,-0.0227580644878938,-0.283304989906809,-0.114957736683421,-0.330598431672488
115,115,-0.00978751759273997,0.0944341700735599,0.999047167463913,-0.0566982755698372,-0.0112457435855924,-0.0260004371309956,-0.316023878706018,-0.135954157469383,-0.392516232867844
116,116,-0.0102916642472926,0.0940504002326267,0.998705382357964,-0.0558635909195707,-0.025416515341129,-0.0314342978226118,-0.320936377343944,0.0249629912446257,-0.488526628442241
117,117,-0.0107635894682596,0.0935322401592013,0.998329144669509,-0.0553107693242311,-0.0432015579022507,-0.0391325732987552,-0.34387878300478,0.215230219845682,-0.5960854793998
118,118,-0.0112109427388515,0.0929451219339176,0.997954054338287,-0.0568063527488677,-0.0593812691982063,-0.0468430977525057,-0.204347200797373,0.362721580338682,-0.48844630046965
119,119,-0.0116412333447862,0.0923545731889359,0.997614352307955,-0.0608513346312365,-0.0710566788448286,-0.0511782881248967,-0.188206525094889,0.425239490054685,-0.194137782029824
120,120,-0.0120617670249212,0.0918262340313622,0.99734274594935,-0.0644213226353097,-0.0781670900686105,-0.0495568715840174,-0.231528321267936,0.4447201841059,-0.148476594998973
121,121,-0.0124826611101278,0.0913068510375861,0.997124125936095,-0.0713658643172482,-0.080939336824428,-0.0406677920311876,0.169767403620134,0.429313151497354,0.0695563199838171
122,122,-0.0128992800045038,0.090752694756886,0.996939473217408,-0.0834184787746533,-0.077532053369752,-0.0267325783092148,0.618080011785264,0.194533534738715,0.775189832915545
123,123,-0.0132964521316792,0.090244034597426,0.996812465901834,-0.0950876975374348,-0.0703222872468078,-0.0103286609621347,0.739923277576817,-0.0347187981614019,1.31055401307629
124,124,-0.0136587613826798,0.0898614918731466,0.996764001001439,-0.103549222393837,-0.0628978450019561,0.00604231991312061,0.928225187538618,-0.382699452133392,1.59956114604054
125,125,-0.0139705702428914,0.0896859647208882,0.996812312405846,-0.105508678494371,-0.0562378553715282,0.0198478779241337,0.897068194235609,-0.646838351400617,1.74717091904618
126,126,-0.0142229228309933,0.0897678507054846,0.996980831363163,-0.0995662562792832,-0.0481881501075402,0.0314210172681585,0.799216914879811,-0.900685187028636,1.51992130470383
127,127,-0.0144258962966568,0.0900540837218089,0.997254071402611,-0.0894020048575209,-0.038962647907937,0.0423042985502474,0.994589247649134,-1.03304252404844,1.20637560670434
128,128,-0.0145922771000276,0.0904701259510452,0.997589821314756,-0.0766456104512881,-0.0299047779492394,0.0514824239124341,0.937045796515492,-1.04858973298961,0.836671455182655
129,129,-0.014734838248132,0.0909409702770274,0.997945553430104,-0.0627858166633688,-0.0215000258715747,0.0582136190323155,0.662120211634748,-1.04219314474159,0.226408060417007
130,130,-0.014866344504808,0.0913912100627925,0.998278565004871,-0.051047975080573,-0.0137718809612215,0.0617589625161388,0.358848624679578,-1.06834298936099,-0.175958719240965
131,131,-0.0149790397646942,0.0918714257770143,0.998602726302086,-0.0428936323398774,-0.00468835947616608,0.0611364573520347,0.0481754253136762,-1.09260072989769,-0.360630539206448
132,132,-0.0150642133874887,0.0924314958787201,0.998943741850815,-0.0369039163848924,0.00485045774765175,0.0569171077881604,-0.144247968006751,-0.984728844948645,-0.497634949056187
133,133,-0.0151332203895552,0.0929946132764052,0.999276763710394,-0.033061862345177,0.013953406492086,0.0502474840399807,-0.0941340160094948,-0.773930306894144,-0.429442124676175
134,134,-0.015197420396392,0.0934838283308441,0.999577177511378,-0.0296936346153488,0.0206368638511257,0.0425694017720663,0.0954746230355577,-0.524422500749069,-0.455242055819412
135,135,-0.0152681641166884,0.0938220999591263,0.999820655256042,-0.0255470313318744,0.0230395338031409,0.0355602192734571,0.223282509783367,-0.334351245193317,-0.516421425222021
136,136,-0.0153699314113934,0.0940228241698026,1.00001251426479,-0.0204525555584509,0.0212306022138021,0.0293795916887654,0.276529404886796,-0.188920880033102,-0.515340860586828
137,137,-0.0154950251161627,0.0941368118252477,1.0001685593417,-0.0151617380274036,0.0162995814711126,0.0230782758362689,0.277388642991809,-0.126389869960772,-0.522737224988299
138,138,-0.0156065584222868,0.0941431454334356,1.00028063060525,-0.00989881175821034,0.00996632782590338,0.0167372507255986,0.303099180585969,-0.153217984310782,-0.5235755765402
139,139,-0.0156677191351597,0.094021039120765,1.00034076572505,-0.00513348387686718,0.00337973140629338,0.0104497404809987,0.346971541412523,-0.272628914564152,-0.41071771219572
140,140,-0.0156417930902211,0.093749939042283,1.00034115015754,-0.000886390407888729,-0.00270335643543102,0.00434587497750972,0.365906503881675,-0.389992479291006,-0.315585050161645
141,141,-0.0155243983099988,0.0932930342650938,1.00027352842416,0.00549184002200843,-0.00997634884986094,-0.00159354238514416,0.235751133750845,-0.338897376039645,-0.342413723193573
142,142,-0.015340183638788,0.0926646032724142,1.0001451637811,0.0133279864641882,-0.0196872329664266,-0.00707039960683175,0.0810850116140069,-0.368530523524903,-0.365438799229729
143,143,-0.0150960778386741,0.0919209133352713,0.99997146787008,0.022044868440214,-0.0292922291713426,-0.0121519523562465,-0.0233017980993883,-0.504672948301834,-0.458387943616495
144,144,-0.0147990061214911,0.0911180590281987,0.999767467115463,0.029709540998153,-0.038267325886789,-0.016594852892673,-0.0113865055435128,-0.541399855717857,-0.411519610934162
145,145,-0.0144558735903905,0.0903118623278839,0.999547637954287,0.0363391147134149,-0.0459741351997368,-0.0203137173574705,0.0337456635111668,-0.570370025292854,-0.408453326556306
146,146,-0.014021563831925,0.08949305687435,0.999304889500326,0.0424900779825417,-0.0519520812970871,-0.0238530502688879,0.0746822020544965,-0.617463171536565,-0.297408863672989
147,147,-0.013491909515793,0.0886257500567393,0.9990327097515,0.0495454289303825,-0.0570310864849565,-0.0272003376618444,-0.0172368965779378,-0.618468986762408,-0.236889163046459
148,148,-0.0129351227360758,0.0877248020163765,0.998744648751384,0.0560605729486923,-0.0615489524599883,-0.029913038762387,-0.0219987621767452,-0.567726813986163,-0.18530767919514
149,149,-0.0124192168267649,0.0868038476632902,0.99845222593168,0.0601026009725261,-0.0657061804122708,-0.0314570681707976,-0.0151752289916816,-0.634353851052745,-0.0780304766715341
150,150,-0.0120119661586808,0.0858752696139533,0.998164867073914,0.0614623234791716,-0.0701461844190865,-0.0313629490369038,-0.108700924861894,-0.705572381664576,-0.174794161407553
151,151,-0.0117528675120967,0.084946669073041,0.997873188529311,0.0558866476921894,-0.0761278473151007,-0.030223883924184,0.172337428998111,-0.765118334892652,-0.09193671474896
152,152,-0.0115966919272604,0.0840079931665691,0.997569338805224,0.0437095246145225,-0.0816378426033676,-0.0285387812989793,0.332595409754118,-0.762026592242998,0.212741577746199
153,153,-0.0114839107024137,0.0830448108002126,0.997263869531655,0.027582174294145,-0.0872835663198544,-0.0255934841144599,0.138451811231004,-0.707180943083827,0.626958220528421
154,154,-0.0113549813881968,0.0820433782861431,0.996967674705449,0.0109788958869128,-0.0880332274792317,-0.0197814886876741,-0.146949064337964,-0.817720354412481,0.51476437292141
155,155,-0.0111503414199937,0.0809905958773997,0.996692088749027,0.00262759093971792,-0.0878413605494567,-0.0131974335021277,-0.371903130938497,-0.711627899615197,0.681314476608024
156,156,-0.0109045146873621,0.0797539367643101,0.99642307013039,0.00497709721441934,-0.0895916356867263,-0.00303422375781197,-0.242967195323845,-0.489428525427483,0.63929207562698
157,157,-0.0106569402871915,0.0783418616288249,0.996153340223823,0.00958420884214349,-0.0899647887880241,0.00940716089953167,0.106262683207165,-0.109284939047475,0.745965894076396
158,158,-0.0103553754945352,0.0769535247393722,0.995904715477911,0.0142909017731246,-0.0846972756973156,0.021456852454908,0.123352903795576,-0.0814057615748766,0.971220181591305
159,159,-0.00994758322090557,0.0757884458248907,0.995698847960802,0.0186960217933566,-0.0744081680819784,0.0313801579654778,-0.105809820608957,-0.12654146093808,1.2521216884179
160,160,-0.00938146883065852,0.0750464140861511,0.995557349249655,0.0217802618419886,-0.0569720398755326,0.0349254008498231,-0.5016223283499,-0.345607451681432,1.35584243464324
161,161,-0.00855692731101732,0.0748592752475994,0.995505784908613,0.0343856998411169,-0.0356185657731885,0.0282510447172226,-0.714512252380026,-0.105386505736606,0.633827423823611
162,162,-0.00750906112991606,0.0750938541085978,0.995532010117893,0.0578220509742474,-0.00924447987733956,0.014407283732424,-0.858464196079049,0.0691664825989098,-0.231396677137794
163,163,-0.00638874406604035,0.0755526079625128,0.995600136583969,0.0880876526607078,0.0208152446916935,-0.00278758680728807,-0.903495617754507,0.026695714556806,-1.29158869637437
164,164,-0.0053465131618987,0.0760384851431501,0.995672489288714,0.114914232361312,0.0479269486154279,-0.0197418106203862,-0.757012836766673,-0.107882776317789,-1.86942751252247
165,165,-0.0045324554362304,0.0763551612226854,0.995709382944436,0.129176352057419,0.0614996908616938,-0.0326800528863643,-0.573933928059298,0.0309624300035282,-2.32669670400032
166,166,-0.00392755338677705,0.0766302620572135,0.995691357131872,0.12152578445453,0.054690377822709,-0.043507719401176,0.461746968344052,0.629276343022562,-1.91874148591502
167,167,-0.00343186988952668,0.0769959407410457,0.995643518843737,0.0972638996273781,0.0380073817528504,-0.0546562647806221,1.31385576783945,0.765952823053204,-1.21340827187932
168,168,-0.00307366924860329,0.0772626689488557,0.995591847355698,0.0687358830591058,0.0206277540608373,-0.0629226297560882,1.53489754280428,0.467645009064115,-0.67374891089672
169,169,-0.00288109629905143,0.0772401495548757,0.995562547839102,0.0449274278353416,0.0032962360645648,-0.0652182783435523,1.03397647505992,0.567238755696097,-0.504384095374556
170,170,-0.00288216079359096,0.0767372949545904,0.995581780734521,0.0254894742175772,-0.0109805575257414,-0.0597656780734097,1.33765684596473,1.37047228093422,0.170129405017121
171,171,-0.0032598347860379,0.0754900772208165,0.995643706375623,0.00159964422815204,-0.0206042483928663,-0.0419214843075791,1.74423226234938,2.25820898008315,1.14981354380306
172,172,-0.00399549888586136,0.0736261561398387,0.995729019340593,-0.0255772334492121,-0.0299756439652742,-0.0134911701379967,1.63673303633299,2.63971737659253,2.13233070694404
173,173,-0.00481427518040505,0.07154068909411,0.995843753779531,-0.0498303677578142,-0.0358373296731772,0.0185903409942837,1.02156318978381,2.39755186178685,2.74603383650143
174,174,-0.00544083489847326,0.0696278588083293,0.995995074873631,-0.0638681571363702,-0.0363168256021504,0.0480041764353186,-0.234158968699857,1.60074445785572,2.71303828830608
175,175,-0.00559951969485883,0.068280967226591,0.996191408911776,-0.0657968095302714,-0.0352558212616546,0.0687912930603444,-1.20557848722355,1.04172248768739,2.03987564910227
176,176,-0.00513540733579547,0.0675910247233337,0.996473295309444,-0.0547413323836639,-0.0345654189458091,0.0783070924010899,-1.73154990492811,0.978251503359467,0.819908914034336
177,177,-0.00423146646526667,0.0672935403457279,0.996834980489802,-0.0361678221021684,-0.0299971879723445,0.0812983384515046,-1.86592733563825,1.02582732940362,0.178953864754569
178,178,-0.00311902841694948,0.0672492299362121,0.997215177920255,-0.0156607637624137,-0.0195573494353304,0.0788349650441906,-1.7050261933245,0.722309907191982,-0.139465037800291
179,179,-0.00202969041756493,0.0673203589676597,0.997551855482761,0.00490453076604178,-0.00665881747102929,0.0722411986441608,-1.32122844785409,0.266826354529878,-0.686908799542542
180,180,-0.00119516408306237,0.0673704082321699,0.997782641693587,0.0181570616057221,0.00571953113618313,0.0637394153773598,-0.792112779677348,-0.000712964889070687,-1.21199234412749
181,181,-0.000619343742667277,0.0673980522124408,0.997892851927975,0.0207851775345454,0.0143846827427242,0.0507363293949065,-0.17896458326457,0.0170004337303572,-1.41504602842506
182,182,-0.000147708263254435,0.0674955258327729,0.997922700517146,0.0180391120279621,0.0181649228536472,0.0321938337446606,0.217309100478625,0.479110218553216,-1.60427083860213
183,183,0.000225358770664047,0.0676671944958362,0.997892228753238,0.0134612961450768,0.0180567291244019,0.0113740916806977,0.40481024117946,0.871708963198447,-1.70590547258424
184,184,0.000505068929017849,0.0679173960982148,0.997821703884104,0.00919149005824128,0.015412816715629,-0.00744375465027061,0.380356296710182,1.15294106068454,-1.48366726778046
185,185,0.000696313994312971,0.0682504086017583,0.997731804740944,0.00634156361661945,0.014168049945055,-0.0199393136149296,0.356070699551855,1.31233532895837,-0.86870659004685
186,186,0.000709519160240131,0.0686531307953232,0.99760789251295,0.00698490829802379,0.0149342742618552,-0.0241157904100385,0.139109272463412,1.46154553151365,-0.276940578637412
187,187,0.000541000316558478,0.0691222623369028,0.997438500939545,0.0107941273686717,0.0176145033836555,-0.0223778650002323,-0.0940240138208644,1.31554438912832,0.0808416448304295
188,188,0.000324460899348682,0.0696767456551528,0.997249144410341,0.0170049463406781,0.0232580882036666,-0.0175166050389857,-0.339798081582821,1.03913641455937,0.314886770190866
189,189,0.000193517273258389,0.0703359590321794,0.997064210050328,0.0254337348692875,0.0308056476782083,-0.0121135904998731,-0.58951035914725,0.654153637362084,0.362768755937925
190,190,0.000281604341647865,0.0711199565307181,0.996906501499958,0.0334221376551422,0.0379190508638486,-0.00908235886700064,-0.625218970082512,0.465602347000426,0.495187341440895
191,191,0.000678523359106366,0.0720915070674979,0.99679793200656,0.0438325101121323,0.0445389383928265,-0.00859245389040869,-0.656014858029497,0.26300456155812,0.482970298938958
192,192,0.00129515429156836,0.073237119194839,0.996725138552627,0.0571284774365023,0.0510073709183537,-0.00857196517537838,-0.657510353279095,0.152088860196197,0.310572125796142
193,193,0.00199649336180125,0.0744632133890772,0.996655671582759,0.0698308155403456,0.0568316888070368,-0.00880848017670865,-0.574069770456984,0.144720133968984,0.000606279323324091
194,194,0.00264756385960881,0.075676525581239,0.996555569269953,0.0787507335398764,0.0617286865573653,-0.00955627004249205,-0.452538429286262,0.190744708707605,-0.386855615019808
195,195,0.0031134046766208,0.0767840336095127,0.996389551321961,0.0794732139161815,0.0659381466701917,-0.0117409827449975,-0.29931858404786,-0.00750533164357921,-0.581562641270867
196,196,0.00342149872012554,0.0778005735730612,0.99613306974515,0.0651294971901077,0.0696286959207949,-0.0144856898567196,-0.0297531616559406,0.707549071505983,-0.749152954882378
197,197,0.00366163444124408,0.0787892224062481,0.995808447952338,0.0417938924794693,0.0714021317568298,-0.0196948480636447,-0.199221153903755,0.320961131122626,-0.516412378067706
198,198,0.00379246512178693,0.0797286039168414,0.995450653486591,0.0171271697528027,0.0726412562397597,-0.0249141036842955,-0.00932831580378888,0.361765071735455,-0.488119683694103
199,199,0.00377288427211741,0.0805964017210342,0.995095283508353,-0.0054331991331623,0.0684847127957415,-0.0302926528396509,0.000775047358712026,0.395115527245636,-0.148108653499371
200,200,0.00356209854123888,0.081369393776369,0.994778533156383,-0.0234696111180261,0.0598993897020166,-0.0344988078042162,0.0536255865168694,0.069697622507287,0.0919037892883249
201,201,0.00301467773298832,0.0820994975531885,0.994499647649317,-0.0350183488123037,0.0480070859028012,-0.0361716624563987,-0.106155877877619,-0.295098787244465,0.187358191887715
202,202,0.00215896053530282,0.0827997240318873,0.994237057945425,-0.0431290843943916,0.035695534459849,-0.0358119532115545,-0.269994216842694,-0.359913258629023,-0.0388378988135197
203,203,0.00121448791773188,0.0833889767986457,0.993995590147305,-0.0483740885664158,0.0222736993188852,-0.0337493361893672,-0.563376817603901,-0.172097894803238,-0.0357048564491834
204,204,0.000399587769467795,0.0837879863632767,0.99377910922603,-0.0467091968066913,0.00794522426530021,-0.0319095918632217,-0.793987519892673,0.25484681227983,0.0688159992685372
205,205,-6.86565102969547e-05,0.0839191968497591,0.993590590238514,-0.0360403242625733,-0.0031060944149136,-0.0316292592265152,-0.789600431130095,0.494442338123902,-0.114697030685643
206,206,-4.97312313314549e-05,0.0836409470024421,0.993438024982352,-0.0195792283529424,-0.0147037994988544,-0.0356626368376578,-0.658759392760539,0.59744587489746,-0.114551301488356
207,207,0.000310077357162614,0.0830070701519436,0.993321767477488,0.00486380182613089,-0.0269949505727139,-0.0427880965466086,-1.55042874833788,0.141352822777651,-0.619569729527311
208,208,0.000797480850516911,0.0822334855182389,0.993231982411453,0.0208169783500567,-0.0375525342604085,-0.0506488305948856,-0.768134911454482,-0.180566482738806,-0.768633776046416
209,209,0.00119978379277179,0.0815349720515696,0.993157350237892,0.0248532489050348,-0.0451232474244726,-0.0563557305174929,-0.45853252882793,-0.505683708797363,-0.452736573478138
210,210,0.00130490989120358,0.0811252337307577,0.993084826680394,0.0201045030762163,-0.0520631398722992,-0.0558467651440544,-0.680245724390319,-0.676229927907084,-0.643288046567076
211,211,0.00107849758365097,0.0810410536375868,0.992967559669365,0.00168676241840982,-0.0549169277911636,-0.0480750049639311,-0.185694454795963,-0.590165055001664,-0.322152707275755
212,212,0.000662022342838332,0.0811387581301255,0.992814567840665,-0.0255368323363352,-0.0490655451660902,-0.0352732740271789,0.358037048177124,-0.35352612500659,-0.0935715722307378
213,213,0.000107914255342204,0.0813611831665549,0.992694242533217,-0.0586977285665748,-0.0324540246241127,-0.0195778131653936,1.55927162150096,-0.709128617683679,0.820452584611172
214,214,-0.000530987108005668,0.0816518275233313,0.992673425842553,-0.0914847556743958,-0.0145083494759526,-0.00266559626536758,2.54112746170081,-1.11187656190329,2.05985255699546
215,215,-0.00120145786527542,0.0819547690032158,0.992817515921254,-0.111579168886009,-0.00628360413435491,0.0147988112447746,2.34163735316196,-1.3182706743774,2.76026643602203
216,216,-0.00202199251422413,0.0823079638897859,0.99316700073868,-0.116952844452413,-0.00979458633372698,0.0369057531953836,1.86682695746937,-1.22802235841186,3.13222841241789
217,217,-0.00302690566005044,0.082748406155446,0.993675772426564,-0.116282411139944,-0.0182414488014741,0.064402913645129,1.50050557013675,-1.04842891609758,3.19021740312321
218,218,-0.00403682291048968,0.0832199413027802,0.994277603201373,-0.110846622952566,-0.0232999353925437,0.091374425369144,0.953240292483623,-1.13346658304386,2.54986041232807
219,219,-0.00487289278762415,0.0836674031439572,0.994905478971137,-0.0990673075895378,-0.0238133049866725,0.112900262837495,-0.047731909147611,-1.23758502733071,1.16568930243468
220,220,-0.00535675739185702,0.0840362569778536,0.995491924828357,-0.0842662598577526,-0.0233598169225538,0.123561347916361,-0.619695822687755,-1.18019617577665,0.263090138748083
221,221,-0.0053914288136028,0.0843608646663658,0.996078994977126,-0.064561731083375,-0.0237493744616614,0.121120762678828,-0.752276968848927,-1.25540575350343,-0.413302359671837
222,222,-0.00509616999720546,0.0846784363503401,0.996708893384057,-0.0388596013006223,-0.0238327854979775,0.109213553341058,-0.847688692691902,-1.40064833561279,-1.12236544991198
223,223,-0.00461705391793394,0.0849381773838314,0.997314354867129,-0.0133035226605378,-0.0234425395204924,0.0913685991868645,-0.698701723567767,-1.50997250214482,-1.58305251137108
224,224,-0.00409989566589654,0.0850887980635841,0.997828583739664,0.00787250060828683,-0.0236722669506175,0.0710209291816534,-0.276447466100031,-1.50968134249729,-1.67837712099523
225,225,-0.00369030442106463,0.0850791401389276,0.998185472767017,0.0220453641372667,-0.0248192450873856,0.0521074088238877,0.147993642913186,-1.4414019776074,-1.5449544177529
226,226,-0.00340406872046594,0.0849129624606115,0.998367845805361,0.0311634258435937,-0.0290245671605835,0.0338657748898023,0.288845028079916,-1.21261470888335,-1.45996861763429
227,227,-0.00314408171921571,0.0846234243130608,0.998421621349225,0.0378019169480746,-0.0369417898031336,0.0142556501102349,0.3184544684743,-0.998074242851262,-1.51914344628756
228,228,-0.00288672006296438,0.0842042447972236,0.998376027370195,0.0424152326288936,-0.0459792314544606,-0.00455391794090961,0.365479460862229,-0.931431338095617,-1.49833000675437
229,229,-0.00260862623972008,0.083649610890375,0.99826003161412,0.0459073485056388,-0.0547886101819667,-0.0209503369584222,0.384853803224694,-0.824592248788175,-1.28939497577557
230,230,-0.00228664740227366,0.0829542350683503,0.998102019739788,0.0480419185151876,-0.0614153266488052,-0.0331042776845907,0.323184041897366,-0.714070654611328,-1.03622590627067
231,231,-0.00190686870278931,0.0820563676083343,0.99788565455514,0.0471745356572133,-0.0644503046285253,-0.0405710680083018,0.33991368742915,-0.660365987138266,-0.736446829303971
232,232,-0.00148591578415291,0.0809623746945033,0.997597708839735,0.0434499274292907,-0.0662895425176008,-0.0443006511271697,0.195855529794467,-0.689157435042374,-0.354518443392191
233,233,-0.00104612611344845,0.0797682424450186,0.997268663480976,0.0402398441443101,-0.0700247680819204,-0.0449480536170603,-0.198844494841639,-0.586690881037867,-0.0800053297251593
234,234,-0.000609278117908253,0.0785676042877604,0.996925615569531,0.0396373760847962,-0.0774639731597268,-0.0437815002769303,-0.377007659453178,-0.467549116380844,0.143184095369445
235,235,-0.00019655203201485,0.0774515433694432,0.996592010456112,0.0423216494106474,-0.0861465041942337,-0.0423459545710463,-0.394944863911644,-0.315297320711111,0.0261513989701554
236,236,0.000205405703026259,0.076403464602288,0.996243375198618,0.0458430819252342,-0.0947274310248345,-0.0422819012283144,-0.094639333818095,-0.235269725321789,0.0107250570683549
237,237,0.00061123841141661,0.075359876019166,0.995862822336263,0.0497379716792567,-0.104918561835708,-0.0431868481160424,-0.0570231892578317,0.208741657541513,0.424116273007821
238,238,0.00100210538231517,0.0743411430607834,0.995482471514777,0.049575798661395,-0.110851016048189,-0.0411873785638958,-0.024836158827711,0.147751622850835,0.0295319749598023
239,239,0.00135898788267074,0.0733692357675088,0.995134313526319,0.0469734832458177,-0.105861850023789,-0.0375334102508195,0.0560112001757135,0.0284867172650356,-0.186914227210019
240,240,0.00166268475194674,0.0724675619291532,0.994850540832606,0.0414165753300234,-0.0913703528135245,-0.0311645420292288,0.046142118113126,-0.40685600399917,0.597721042297149
241,241,0.00193479280100302,0.0714486469013539,0.994649350320397,0.0341847693506083,-0.0673726465140491,-0.0205553377183631,0.696666059091981,-0.208253552367537,0.724740369087745
242,242,0.00218857716066239,0.0702987757661529,0.994510761594892,0.0145851845082875,-0.025949462204622,-0.00383160473117645,1.18416716186917,-0.26835219697494,1.81369914221692
243,243,0.00239217579244931,0.069301762975453,0.994408871680893,-0.00804898097650628,0.0191189772871816,0.0154083398511068,0.351738990758779,0.135161638835426,1.92327031916135
244,244,0.00251335845773341,0.0687397330082599,0.994315840122991,-0.0197957838885885,0.0442462234173771,0.0300805892662229,-0.0547897799424105,0.706205141560724,1.2585212273099
245,245,0.00251946911408787,0.0688935482200335,0.994201975024861,-0.017256737657977,0.0680010177684879,0.0350299477270626,-0.139760678714276,0.501201988095036,0.889719144118464
246,246,0.00237863344078671,0.0702441772686062,0.994030090915224,0.0100852067456018,0.0949457825776358,0.025841982859512,-1.3115091826865,-0.0713058014219753,-0.52627844135444
247,247,0.00211242847291857,0.0726020916193561,0.99382027852022,0.0527273673223682,0.112551559491973,0.00581953278103033,-2.52831132888521,0.24070716555266,-2.83736074355062
248,248,0.00176810887719291,0.075243374936115,0.993627404850389,0.0823822374239958,0.117619053077613,-0.0190263820505402,-2.01541442270589,0.122601754457058,-2.81039401684441
249,249,0.0013927922668596,0.0774457215427599,0.993504998858129,0.0859485664596533,0.109368872746554,-0.0418688102063098,-0.603902854063207,-0.169472429441183,-1.44308791654576
250,250,0.00103360961957277,0.0784881401263304,0.993504667109321,0.0624014913000415,0.104270112820181,-0.0531413272663851,0.604942084496001,-1.16568986242845,-0.419120976159228
251,251,0.000649473295281079,0.0780750082453559,0.993641827883534,0.0203425372645492,0.0947049062201744,-0.0468392227513913,0.584520415844361,-1.07117145656908,0.131710717899417
252,252,0.000208540901567673,0.0766900028702974,0.993881152661804,-0.025592597189517,0.0595297299600356,-0.0297944558215236,0.805077069399956,0.284254971942883,0.918572708418402
253,253,-0.000227642070055124,0.0747804402987298,0.994195884789843,-0.0680096510260443,0.00541804117089019,-0.00787007011180336,1.59403035716529,2.00391408077122,0.952768711605545
254,254,-0.000597016708688886,0.0727919425467272,0.994558381522094,-0.108377304375237,-0.0389688734627394,0.0139114680778843,2.92678579605245,2.71362261701189,1.557122009364
255,255,-0.000837118634295,0.0711687463946505,0.994940428097575,-0.135951281197133,-0.0583015725956344,0.0309531824990669,3.15221752605027,2.653891398103,2.06144643780331
256,256,-0.000928377720257087,0.0697922556696316,0.995365557740947,-0.136857658545645,-0.0511292545875987,0.0455481675536658,1.76334553226417,2.23476594973996,1.91506882131367
257,257,-0.000911542438575008,0.0683649411670519,0.995850070150295,-0.113988048385573,-0.0320524830365769,0.0610796254357699,-0.668185260898492,1.13348263622059,1.18896325893113
258,258,-0.000814583487287385,0.06706198626389,0.996354408201444,-0.0758015126622822,-0.0166112566758398,0.0743858706323272,-2.48445847788031,1.1658290780492,0.361140679286861
259,259,-0.000665739994043771,0.0660589394913733,0.996838756668965,-0.0358494615738096,-0.00914731973512735,0.082238116957217,-2.85502153959254,1.94520198738745,0.16166058956545
260,260,-0.000493516633252074,0.0655316858785912,0.997263088117496,-0.00682456949119192,-0.00260053121213218,0.082607826754711,-2.58713298124964,2.11677493328041,-0.108649029089384
261,261,-0.000215356469122123,0.0656267016104926,0.997657147741281,0.00850737326738247,0.0102580885619652,0.0737380726589374,-1.84466093810688,1.38916148135671,-0.309361742953126
262,262,0.000187688583575371,0.0662265813283824,0.998045688299871,0.0171632969741196,0.0259932736821544,0.05676864279081,-1.18138860216407,0.664664612667867,-0.83298972629999
263,263,0.000591528204356389,0.0671118935592501,0.998381475738089,0.018675011588426,0.0390220177860491,0.0350697024754921,-0.491603190601766,0.487279398269617,-1.67455782403879
264,264,0.00087198110205976,0.0680636568015306,0.998617972310616,0.0158125225301253,0.0494127621428122,0.0127284197421077,-0.0999557136422969,0.523100182460306,-2.1408654294553
265,265,0.000904841007559786,0.0688630733170428,0.998709306383919,0.0125596639541566,0.0577797445036271,-0.00555712558565122,-0.0583265725124921,0.462531485778368,-2.45783252732087
266,266,0.000606269717373279,0.0695230677368835,0.998613455614725,0.00470732652787198,0.062257435657808,-0.0206626200095918,0.301782588819261,0.581663449713847,-2.23530933310454
267,267,5.87698988453325e-05,0.0701900131632147,0.9983621184021,-0.00888689436997983,0.0625414915850484,-0.0353099677228728,0.627929964402254,0.687989416587234,-1.71995829438818
268,268,-0.000612318394974423,0.070845015430133,0.99802037379869,-0.0252996767865111,0.0585284208742642,-0.0478504215495383,0.713366896221389,0.936652814428206,-0.955585008839181
269,269,-0.0012816799287692,0.071469010503163,0.997653251673918,-0.0384158703200932,0.0522249310517497,-0.0567977269262554,0.432469023553179,1.0433362925732,-0.368937227723587
270,270,-0.00182398142657309,0.0720427955098137,0.997325642555715,-0.0463316721838092,0.0463835340026073,-0.0608444603782938,0.211795171064769,0.937241500593237,0.35974180492732
271,271,-0.00222860851299894,0.0725022980517104,0.997042858013657,-0.0451817388796726,0.0415477370929394,-0.0565815290392558,-0.26210366486638,0.824445544281662,0.679508009655843
272,272,-0.00257923870564352,0.0728589953436983,0.996764115174817,-0.0379149931300053,0.0394699830375918,-0.0451833891597428,-0.39490269805531,0.650365138193878,0.948818454983825
273,273,-0.0028918906604269,0.0732073507590215,0.996484314510625,-0.0277454528722027,0.0393684408143705,-0.0309175425126279,-0.501827846084046,0.53035699857645,1.01253099411943
274,274,-0.00318265891899451,0.0736426457050013,0.99619728426027,-0.0183425725205431,0.0436080540010203,-0.0180886129154664,-0.507330935964318,0.221131051917578,0.900306313209331
275,275,-0.00346775599159178,0.0742611245553759,0.995895848360919,-0.0131864964561741,0.0498032710560363,-0.0105033795043207,-0.552622772322239,0.0586006214896232,0.483199497060075
276,276,-0.00369533718087714,0.0751856964876362,0.995594421200383,-0.0141875506490783,0.0608144970827981,-0.00946857076939376,-0.622606470406439,-0.205817327220577,0.248739123905934
277,277,-0.00385462013527804,0.0763528980167738,0.995298946412696,-0.0221748806865396,0.0755766855152844,-0.0108751855053852,-0.338638459287334,0.207185000452066,-0.818238317161379
278,278,-0.00402333823747186,0.077579641340723,0.994988781963434,-0.0304986050807388,0.0882736280707695,-0.0161541149952225,-0.274056392700557,0.437907888316503,-0.673260136604825
279,279,-0.00427919902928408,0.0786822855824917,0.994643071682594,-0.0375632593477698,0.091997840113199,-0.0219281730062368,-0.107765643210482,0.712942852180586,-0.424974995717632
280,280,-0.0046998909650778,0.0794766699141316,0.994240908734588,-0.0421685610434401,0.0804641097204166,-0.0273237885338543,-0.0818959293501125,0.557079121199066,0.250510165764769
281,281,-0.00541063045615106,0.0800332823744688,0.99377834362509,-0.0494934403625819,0.0503751665241693,-0.0310306083720971,0.0490071737808912,0.220999061566572,0.772370137125786
282,282,-0.00635916568727735,0.0804739104178289,0.993272679828648,-0.0592730365155079,0.010051940751759,-0.0324086869254955,-0.339939163794774,0.0159667221216791,0.72105759528115
283,283,-0.0073572694476742,0.0806915226720594,0.992733999794344,-0.0641795533309383,-0.033550883476389,-0.0333543157782956,-0.749099383123694,0.107239618012132,0.0581062447634527
284,284,-0.00821738048311712,0.0805798184678628,0.992170762935081,-0.0611324668412908,-0.0705351252078689,-0.0360138968811132,-0.919545407766223,0.334429853306984,-0.813378158943568
285,285,-0.00875250174695406,0.0800330957727507,0.991589498625753,-0.0513223760338236,-0.0898462262309286,-0.0426256845368647,-0.911112335612662,0.250698939726742,-1.83066870089098
286,286,-0.00871732151340957,0.0786871276792595,0.990934845038801,-0.0336896826305475,-0.0932026954831494,-0.0601439448797199,-1.16253236476219,-0.119832051583436,-3.25356061381734
287,287,-0.00823741500434173,0.0766139472800189,0.990202773155825,-0.0170668585372528,-0.0923418633164196,-0.0880272596350355,-0.888327125133577,-0.0894209267663038,-3.18449729480787
288,288,-0.00768220903071594,0.0743615260170403,0.989475167058843,-0.00725361187848664,-0.0824717367698158,-0.116187191032843,-1.16299419688911,-0.573539936114685,-1.97997469010183
289,289,-0.0074211454586506,0.0724761330520054,0.988834128571175,-0.00505656936350783,-0.0774132107919186,-0.134808801506832,-0.839422691933869,-0.327541723414014,-1.06307203101339
290,290,-0.00782349023731343,0.0715025432632048,0.988361445234318,-0.015243438938837,-0.0735136646603762,-0.134754005498785,-0.0650255191247266,0.0708326227378033,0.0716271324637717
291,291,-0.00918589690470517,0.0717074229108888,0.988033142090534,-0.0459059881182134,-0.0474546992304818,-0.109800630103478,1.55612297209813,-0.566088167087791,1.95806966714425
292,292,-0.0112623177517033,0.0727249281877284,0.987793647208271,-0.0931193289594418,-0.00306489319590398,-0.0666914256421558,4.00681054331772,-1.24538664513054,3.13021243402962
293,293,-0.0136071177873682,0.0741520826241856,0.987674838977025,-0.139454034163633,0.0359383443126873,-0.0158681011002897,4.71384940436158,-0.866439092892362,3.89698746758431
294,294,-0.0157741679655828,0.0755877093692532,0.987707926349835,-0.170370168705223,0.0607509538143595,0.0331845806413395,2.93134516575591,-1.06397983903727,4.29728874165998
295,295,-0.0173170566244689,0.0766319209337247,0.987924344045157,-0.182454557098442,0.0652074774987246,0.069840326502959,1.76782806992692,-1.49995319544624,4.47557582005105
296,296,-0.0181814733062172,0.0772317796611186,0.988375024455409,-0.175648357254782,0.0505794892868933,0.093693231466123,1.72736634047412,-0.964377033204992,4.28561047683741
297,297,-0.0186637446048714,0.0776558511537091,0.989035508603317,-0.148654913083625,0.0305816507202788,0.113017136141346,0.560933811962753,-1.13821059146168,2.27152911818433
298,298,-0.0188437332438591,0.0779869345846938,0.989824872075851,-0.107385763395304,0.0105025456591306,0.128313030970842,-1.06726277757428,-1.31856531719488,0.539028131035118
299,299,-0.0188016100781709,0.0783075010275327,0.990662334088198,-0.063025032990673,-0.00873099649043635,0.139270654922346,-1.95228082389796,-1.64292397679881,-0.00819790726841713
300,300,-0.0186176578559937,0.0786997584843658,0.991466968525572,-0.026832438075145,-0.0222074275930359,0.145335197836962,-2.12410130387488,-1.53936601695837,-0.255777569040537
301,301,-0.0181660992801552,0.0792029621054929,0.992293921343579,-0.00385028959457966,-0.0233736285527565,0.143693511576196,-1.86491492804132,-1.42863194357687,-0.490810301264961
302,302,-0.0173932475951257,0.0797625176621711,0.99319539838178,0.00696242088464763,-0.0172885909929096,0.13317657807558,-1.05464380951809,-0.989581147716355,-0.53821883456113
303,303,-0.0164873959958038,0.0803192837115288,0.994086046120599,0.00933721303299851,-0.00796700454808485,0.116913719795239,-0.112956659057456,-0.457816249202777,-0.514971647744717
304,304,-0.0156368478416884,0.0808135981776208,0.99488116247682,0.0108470199582561,0.00255463584401832,0.0989448612698516,0.236304261536547,-0.141102098973022,-1.01247008230874
305,305,-0.0150300642265425,0.0811856054837218,0.995497003647758,0.0137672008636757,0.00741591376761651,0.082130961398213,0.527898674747255,0.0171768005587043,-1.61693100224052
306,306,-0.0147242447510268,0.0814557623851724,0.995914880702546,0.0150599071938869,0.00489712780874044,0.0650753637603756,0.9399620963219,0.0012545327053915,-1.78119046002343
307,307,-0.0145938808308925,0.0816631390670428,0.996192016666918,0.0127399408308155,0.000758850056247226,0.0458581620205036,1.18363661662038,-0.32573112048255,-1.60871327530657
308,308,-0.0145537232627686,0.0817761568595,0.99635921135828,0.00892536792032205,-0.00317012227085573,0.026806060744479,1.01285296470786,-0.851513274107226,-1.31432039158524
309,309,-0.0145186478100141,0.0817634736635387,0.996447085943856,0.0061637406484557,-0.00695205052265982,0.00960719107115756,0.709982209211347,-1.12790225043978,-1.0368682337424
310,310,-0.0144035675703985,0.0815939453820084,0.996485999822733,0.00725422009952851,-0.00969028632406264,-0.00404617969293969,0.222815961564576,-1.16599510512678,-0.757553670522447
311,311,-0.0142185704655217,0.0812364472145476,0.996460028046148,0.0133590567310782,-0.0144291588933752,-0.0134626691555728,-0.238324960556434,-1.11996531154379,-0.730044616821118
312,312,-0.0140215098457638,0.08071281763612,0.996352710305333,0.0224319677725632,-0.0237785385736672,-0.0199424316329319,-0.401463575694448,-0.853897874961678,-0.644446872132754
313,313,-0.0137986324046759,0.0800711183098573,0.996192603693116,0.0319452677620071,-0.0352147310110684,-0.0245537889012289,-0.387824921322728,-0.552288562093825,-0.543928468154361
314,314,-0.0135357535967913,0.0793587168972523,0.996006836810285,0.0401398362024672,-0.047878492260262,-0.0279773708088623,-0.25209134029538,-0.195620429241712,-0.434201080621024
315,315,-0.0132182435165944,0.0786221559702015,0.99582081235038,0.0468666548429116,-0.0596721821078432,-0.0310893134126766,-0.173957443827045,0.0336257470757382,-0.380445439921043
316,316,-0.0128054848894006,0.0778289407611186,0.99560963579914,0.0532237361477259,-0.0700238112873896,-0.0349529114981107,-0.179677308883517,0.112789020521329,-0.46412811697889
317,317,-0.0123073022614381,0.0769473652954606,0.995358364107965,0.0594937007730609,-0.0784905643286489,-0.0392221093842901,-0.10524362800384,0.106646335957451,-0.550369705766021
318,318,-0.0117842878867408,0.0760250656401842,0.995104822369274,0.0623333060254882,-0.0840798024233975,-0.0425401855930375,0.254756005628227,-0.136557441128512,-0.351477019626885
319,319,-0.011296923427968,0.0751103822974242,0.994885261595696,0.0592392339220699,-0.0861821954808575,-0.0429913560523392,0.317944142057276,-0.0717261119686033,0.970782433852839
320,320,-0.0109055836840601,0.07425230303684,0.994734406972971,0.0525107438408185,-0.082095031027922,-0.0359362331057026,0.477070078620092,-0.417645348538943,-0.17896065579665
321,321,-0.0106592909231666,0.073355152845768,0.994648172730688,0.0433721478465033,-0.0726413089291942,-0.0245582333743179,0.242970971647911,-0.788798748739456,1.25129423476749
322,322,-0.0105176137116835,0.0723873835073007,0.994602163251713,0.0346045213915557,-0.0640714284703883,-0.00641967808440991,0.270699209435891,-0.536704424777148,1.38190547942834
323,323,-0.0104063893815185,0.0714942229529364,0.994599064071663,0.028301833997533,-0.0594577526328547,0.0126280468130411,0.286745487216183,0.0146248026547014,1.30543168332478
324,324,-0.0102510978425077,0.0708203533454637,0.994640945503005,0.0214443601056959,-0.0455359529784151,0.0282574571738637,0.294022969971203,0.167105823667172,1.21726574417567
325,325,-0.00997690895428812,0.0705097136433229,0.994729772852847,0.0195868832566336,-0.0270654141091044,0.038339459808339,0.0170574102067642,0.27049970012969,1.71057873961218
326,326,-0.00951641001205097,0.070647430017883,0.994903198602561,0.0243635856382147,-0.00141620606059707,0.0432286112873001,-0.385902057615542,0.585156137670711,1.74645495843606
327,327,-0.00891838874873916,0.0711354649764556,0.995160166575449,0.0405515874296706,0.0281267278962623,0.0443422418938713,-0.584317456034489,0.9312315417957,1.40453426551857
328,328,-0.00828256000964076,0.0718426819005984,0.995444984093535,0.0655019032558989,0.0606805774506972,0.0420830470565118,-0.889995495520793,0.747551088038144,0.191947704837093
329,329,-0.00770913268899897,0.0726391360045175,0.995701452261239,0.0925235145732627,0.0874963568151967,0.0356416070448548,-0.852031078532391,0.397186912642997,-1.2742819701775
330,330,-0.00729882905787321,0.0733965396667022,0.995872506511037,0.111065130184011,0.102392396545863,0.0249789658463703,-1.3150938915559,0.115565930679899,-2.33054874893344
331,331,-0.00699618622864586,0.074271918969839,0.995934839147981,0.110789558228003,0.101698313246797,0.00374405939225275,-1.29578485753034,-0.0962322960085282,-3.01006409777476
332,332,-0.00673498988952081,0.0753508219210664,0.995928724751245,0.0906720809362043,0.0866163529456018,-0.0278888787521984,-1.01770599481475,-0.319407122109442,-3.01173384868834
333,333,-0.00660018612670397,0.0763998754771901,0.995891158194532,0.0570419385972957,0.0621227834131002,-0.0610188695797438,-0.442706144235196,-0.649664046313377,-2.49336536258149
334,334,-0.00667634388885706,0.0771866965603163,0.995857765469055,0.0191682715934814,0.0423734652149411,-0.087160613115921,0.179296298182917,-1.06804092795348,-1.9076463153161
335,335,-0.00704737305511272,0.0774795882757874,0.995862446654943,-0.0108740408915402,0.0340790439320344,-0.0976669717293283,0.42886937492579,-1.18250060849319,-1.44246656308003
336,336,-0.00795662024532425,0.0770577509690692,0.995889169579853,-0.0332112600654534,0.0278548737740659,-0.0878479670875274,1.56888795410521,-0.254309573193724,-0.417303402661925
337,337,-0.00934807122374211,0.0760791492471672,0.99591574565245,-0.0589865452652777,0.0154477983005033,-0.0622282940333033,2.1759852324551,0.990791657306685,1.0684572554225
338,338,-0.0108557609187771,0.0748782697290439,0.995963594032696,-0.0836208815738358,0.00635689752024033,-0.0281535476813221,2.29676820136372,1.78849983264013,1.68968512284706
339,339,-0.0121136594376617,0.0737867895167454,0.996052016304931,-0.0991510248219626,0.007115404986689,0.0029846753353143,2.68526845244358,1.97167538354351,2.8176458163097
340,340,-0.0127557732520306,0.0731341803061576,0.996198764537408,-0.10296526611726,0.0187887340457146,0.0251759565673547,1.60802585844864,1.81724664288389,3.42125027673831
341,341,-0.0126067505343329,0.0729897189830248,0.996430141348745,-0.0850817455124011,0.0319403584103189,0.0387532924920683,-0.236097088522345,1.50922377578736,2.81415349014732
342,342,-0.0119098065012213,0.0731305866127861,0.996730923983998,-0.0457104869522184,0.0435935301663356,0.0498327645596693,-1.81892640995081,1.3705490850866,0.535004442412646
343,343,-0.0109270450557949,0.0734484267518282,0.997054754850095,-0.00181168402576271,0.0501384991901386,0.0565637796987749,-1.65176915436425,1.55978727327947,-0.56801327098337
344,344,-0.00992093231531441,0.0738364029229695,0.997354285190446,0.0347814519694906,0.0530900695697111,0.0577891101932293,-0.648622523518356,1.65491219614203,-0.510625419076437
345,345,-0.00915424242982134,0.0741886683035466,0.997581743887704,0.0576686602177125,0.0566977079121053,0.0542886156819557,-0.10865993508112,1.46230777554496,-0.535258456554685
346,346,-0.00860181186854231,0.0745599120631061,0.997745292227072,0.0654942111100683,0.060244741509468,0.0440420225604627,-0.016957217431827,1.1167530223758,-0.807088564447048
347,347,-0.00808857428662048,0.0750220397478503,0.997875513675866,0.0625245666172018,0.0578212752219548,0.0265697163248111,0.0540852543444835,0.979513349848494,-1.30659236761847
348,348,-0.00765257263326489,0.0754949688417287,0.997959103863568,0.0529587754462077,0.0494466439783451,0.00583153733149461,0.272626848575683,1.26188573595425,-1.69397576797234
349,349,-0.00733192112134989,0.075898311250428,0.997982796961681,0.0395887460012342,0.0416523007547185,-0.0136440162103381,0.304949593239873,1.18879680176251,-1.88202709930372
350,350,-0.00716485780965809,0.0761514402128973,0.997932624363733,0.0262207520087224,0.0372517285749176,-0.0277461089953317,0.385728993477835,1.02528585726472,-1.58420675947862
351,351,-0.00721203686648811,0.0761725069551002,0.997787991186328,0.0144134296054566,0.0349362763736437,-0.0361549068301724,0.375333139987672,0.80907829496427,-1.2237374928209
352,352,-0.00744823277397836,0.0760149114410294,0.997561386885912,0.00251199549605349,0.0306117613445785,-0.0415298646738979,0.291681541601773,0.727551511467613,-0.90472313097569
353,353,-0.00778304230740881,0.0758008173094887,0.997286616720702,-0.00851746889786886,0.0227042390276632,-0.0442384087533348,0.20598628002055,0.790698035116952,-0.39416403190525
354,354,-0.00812609466056356,0.075652634356832,0.996995743159645,-0.0175538647305218,0.0132205138593728,-0.0447523538710242,0.0579710101174793,0.72792920953176,0.13668472355629
355,355,-0.00838694815455259,0.0756930120899753,0.996719017342406,-0.025654168440634,0.00697193268663521,-0.0429889017745901,-0.035524484511279,0.468240654518013,0.552121047428038
356,356,-0.00851267801741896,0.0759334989337038,0.996454314788407,-0.0313331523158321,0.00663497051871187,-0.0391681712136009,-0.135001652260649,-0.0786423541867107,1.10459928250224
357,357,-0.00856393538651539,0.0762921757157094,0.996181336683692,-0.0355484354447069,0.00931302535295409,-0.0298489238679357,0.093369279833636,-0.0442511589786886,0.301581129384243
358,358,-0.00862025796030658,0.0767513539448996,0.995902209605861,-0.0382918602570084,0.0139692058690523,-0.021989086643323,-0.146182146219093,-0.332005637410606,0.620517890460305
359,359,-0.00876087300120946,0.0772932446899985,0.995619288046467,-0.039786405750891,0.0221955237246348,-0.0135938234932726,-0.0537969251576612,-0.511501713368233,0.413722563080124
360,360,-0.00906479803233946,0.0779000953402951,0.995335264355835,-0.0375676803320758,0.0285829857739713,-0.00826887892408176,-0.033329303232518,-0.440930176678511,0.269429482261773
361,361,-0.00963448330052304,0.0787684880233252,0.995044532446424,-0.035723761478426,0.0376185317202048,-0.00414085133399896,-0.000821973442934526,-0.301334035996662,0.115492534650654
362,362,-0.0104167760053099,0.0799092726094991,0.994748094437521,-0.0375225513072931,0.0478025549958684,0.000226367198616868,0.109870558195246,-0.165970670796505,0.0420854786238038
363,363,-0.011257352306054,0.0810269350714271,0.994458201348209,-0.0407412666091504,0.050885069481277,0.00301359954690426,-0.0365949580311018,0.100929238481806,0.442678979338981
364,364,-0.0120020852386841,0.0818271181916965,0.99418596635846,-0.0413012761598615,0.0407669669141676,0.00406518982714073,-0.57992107197598,0.517117656888647,0.64659453356637
365,365,-0.0124970772667366,0.0820164932344769,0.993941338144242,-0.0362042440997143,0.0220593483313252,-5.74454310928497e-05,-0.863028904643356,0.477101780008202,-0.031359662092912
366,366,-0.0126673569542173,0.0813342383605025,0.993751264756859,-0.0237388023688987,-0.00967523733004011,-0.0139880546273623,-1.06128156325572,0.276570335372636,-0.778601308360233
367,367,-0.012616318142918,0.0799786524279877,0.993611089973561,-0.0056331680335359,-0.0532474599288866,-0.0362012308710997,-1.44566571371407,-0.0590699406389703,-1.4928845881086
368,368,-0.0124575862379584,0.0783443237451743,0.99348172035821,0.00985341991371095,-0.0932647826379771,-0.0603915948593659,-1.71641549905872,-0.189261108636374,-1.99716633542215
369,369,-0.0123043200470168,0.0768238926578448,0.993322719756033,0.0213652799760811,-0.122137279134678,-0.0805194898190805,-2.42207797333489,-0.484933191069378,-2.77550649686627
370,370,-0.0122690879645835,0.0758080977455434,0.99309210432947,0.0147528627102625,-0.13396902034832,-0.0916691202989768,-1.05078735847709,0.0759352104428505,-1.74250151375187
371,371,-0.0123241217057287,0.0753156261270637,0.99270237332759,-0.00120589943478308,-0.125417605351475,-0.091714899191937,-1.02514278495668,0.447293057138688,-0.601058329740752
372,372,-0.0123946592244075,0.0750840058239882,0.992181661976665,-0.023672523929325,-0.0969300658366151,-0.0849090902776486,-0.262209257879259,0.876015393335816,0.100071892407975
373,373,-0.0125222482283747,0.0750808363666383,0.99165922258595,-0.0469746067554929,-0.0428980701116563,-0.0720120509302746,0.833791622086989,0.499557342354684,0.394886205913622
374,374,-0.012748097302931,0.0752736187357291,0.991262792073076,-0.0684290560783867,0.0149415839501731,-0.0544703534737487,1.68403067605054,0.153615782564428,1.08953865918357
375,375,-0.0131128813686879,0.0756300202975727,0.991118655110186,-0.0876969010238403,0.0570994904784996,-0.0336557884051844,2.60316649692338,-0.213227093557316,2.40246576461695
376,376,-0.0138055355275425,0.0762669057690233,0.991269079270083,-0.0950467651883444,0.0732717222320921,-0.00333368418748746,2.68127896320688,-0.814798350859682,3.31378280957525
377,377,-0.0147980886055827,0.0772039378155811,0.991626372401087,-0.0886948912919355,0.0640029846133295,0.0380584051169318,1.46855959522386,-0.750325740545097,3.67860442256248
378,378,-0.0158053907102855,0.0782651854331842,0.992121019032673,-0.0770468612316372,0.0449657225413739,0.0812811237898532,1.12769480280099,-0.886856639693332,4.11476511106847
379,379,-0.0165424690322232,0.0792763794587747,0.992684125660057,-0.0638262571021644,0.0328349409397523,0.11767923888265,0.79914809285502,-1.60080576310391,3.60759086136725
380,380,-0.0167246936534783,0.080064191198602,0.993247417418405,-0.0451842373410495,0.030246258978483,0.139631999336871,-0.0812338226143088,-1.89343505127928,1.49862891139663
381,381,-0.0161785203806954,0.0806014476740506,0.993865863344682,-0.021197506923969,0.0280097525674842,0.144202347118623,-0.537962641695219,-1.47308239835723,0.461206679125778
382,382,-0.0150935442453219,0.0810061585077338,0.994582915812164,0.0131578932417397,0.0201629903798584,0.137790279996006,-1.18259494907507,-1.13214586895821,-0.253377379299483
383,383,-0.0137301839831659,0.081322445038402,0.995313107136426,0.0513353531336894,0.0100227652520038,0.12397527766025,-1.55654226164949,-0.953519524643562,-1.20121842284182
384,384,-0.0123485245061117,0.0815937192714864,0.995971247518233,0.082791510174334,0.000714320672818136,0.105956636463097,-0.992715876011992,-0.768031895088184,-1.5865401902631
385,385,-0.0112081565935176,0.0818630683042233,0.996472652735214,0.100256318746796,-0.00718730138939247,0.0879258138162808,-0.0949927534420485,-0.389923385972615,-1.6810552215638
386,386,-0.0103070040987977,0.0821615804003869,0.99680437466752,0.10396998670268,-0.0118760308688253,0.0678226509441891,0.652846453195492,-0.0125896816497528,-1.46126189178732
387,387,-0.00947156933397625,0.0824599822198816,0.997022191757792,0.100686106076983,-0.0138917824355368,0.0432389559793654,0.724582163835632,0.10687141474507,-1.62288153205766
388,388,-0.00870412546346583,0.0827106247651699,0.997145113987945,0.0939444246786686,-0.0152916598208869,0.0177483477093768,0.627219769017058,0.0114140727767995,-1.86297385471716
389,389,-0.00800722021454998,0.0828657496288089,0.997192417871534,0.086090265940387,-0.0168907888861302,-0.0053329855305162,0.611298274723135,-0.250912002230264,-1.84466017057634
390,390,-0.00738376110749207,0.0828776874053153,0.997183780265438,0.0791868100476671,-0.0208854802505947,-0.0226665707002671,0.683882050738552,-0.539709164779428,-1.42487131850212
391,391,-0.0068753555292786,0.0827358421382568,0.997099463012412,0.0743842948390923,-0.028609816757313,-0.032436654447315,0.538358410103757,-0.853169039390321,-0.904954924681049
392,392,-0.00648078720017851,0.0824716596387537,0.996928817834694,0.0696171640972187,-0.0380910194334533,-0.037119017571697,0.411879446806434,-1.1906566762758,-0.320080405945991
393,393,-0.00613893507469659,0.0821010650039802,0.99670534660832,0.0663362050448806,-0.0475684124213454,-0.0380494230704159,0.175573513772424,-1.43313831566618,0.015821412789029
394,394,-0.00578849609719438,0.0816403724810004,0.99646195209982,0.0664964153054095,-0.0571577305122559,-0.0368901198064947,-0.0890525582634432,-1.53380039169256,0.114644781841071
395,395,-0.00536793858182312,0.0811062557241367,0.996230667770483,0.0700183534488818,-0.0650138367316643,-0.0354930050958007,-0.333214778280878,-1.39861433050091,0.107515546594773
396,396,-0.00485836226174999,0.0804643235221212,0.995992190380142,0.0755064414203266,-0.0699266639994331,-0.0339959990570794,-0.419490618329172,-1.10182053082299,0.0584930918752238
397,397,-0.00430155830355108,0.0797059677864283,0.99572850868643,0.0806127951976978,-0.0735001755154484,-0.0312866700903023,-0.354508823658522,-0.745515498305928,0.171567590756624
398,398,-0.00372663433397747,0.0788856024628422,0.995471636149695,0.0839063966314789,-0.0759927024421788,-0.0276726166914204,-0.317812677830737,-0.46912833494281,0.243362709305391
399,399,-0.00316233095559972,0.0780557457197711,0.995251787789323,0.0837054787360966,-0.0767946346771704,-0.0236140238811953,-0.346757088993064,-0.312113100624306,0.339105878704433
400,400,-0.00263699771315995,0.0772669470562226,0.995097303296016,0.0800540268497254,-0.0797306434833072,-0.0193498456955662,-0.432373050125606,0.162534900964035,0.387338287301788
401,401,-0.00214004999674627,0.0764650820052368,0.994997799240212,0.0683228898100929,-0.082763348251633,-0.0132853987656234,-0.220947207353043,-0.32682580733106,0.255908501232848
402,402,-0.00165265670541491,0.075614333666977,0.994934248194964,0.0495564320453285,-0.0809855716220533,-0.00759380480186006,-0.13208651060107,-0.541292426253315,-0.181950735244738
403,403,-0.00119022483949324,0.0747923243326515,0.994920118572274,0.0315205214199687,-0.0809050452295844,-0.00130817744563524,0.285878994527165,-0.6815286641558,0.469831725169337
404,404,-0.00076772416972198,0.0740778200796578,0.994968024878394,0.0202207578371994,-0.0766068792003228,0.00573641427837861,0.551764311739814,-0.506778267807008,0.923565401878687
405,405,-0.000399679074102992,0.0735506252011787,0.995089995137714,0.0158660160878732,-0.0673749387628813,0.0136787600223915,0.405719820162223,-0.00646001303950526,1.35406627777316
406,406,-8.59020881323355e-05,0.0731889346195978,0.995333878875083,0.0175507527703818,-0.0450979183014879,0.0269276003183656,0.333433729703654,0.121351089551698,1.67665247459437
407,407,0.000184747664887963,0.0729410797260867,0.995691257852068,0.0241157051481698,-0.0140918053594797,0.0466827758037027,-0.100144383925973,-0.0519249854526069,2.27148853903127
408,408,0.000414025153725037,0.0728419822489989,0.996089325536455,0.0312290357530766,0.0202238694348744,0.0671862362302929,-0.552109429046628,0.431585189735859,2.06396621022049
409,409,0.000602824296747343,0.0729250576686536,0.996454949511016,0.0423336144963797,0.050530752712124,0.0807348491297311,-0.914011168408132,0.867224317631671,0.973904040550902
410,410,0.000751282015710185,0.0732217348329012,0.996715251860408,0.0514326137682878,0.0720636966686714,0.0810385699949356,-0.797746006892773,0.778023930086464,-0.267103339073324
411,411,0.000939730216725713,0.0739653581063712,0.996868939683527,0.0598564213693141,0.0781762439815212,0.0618834615693632,-0.886587133533248,0.878079506593731,-1.57530630445607
412,412,0.00116825807704284,0.0751282832170069,0.996969376811151,0.0654309522943743,0.0754855414691056,0.0279533497885948,-0.979435352147694,0.271433532605016,-2.73680527874863
413,413,0.00131614769041443,0.0763513537342807,0.99702497346187,0.0621294161669643,0.0717975381620726,-0.0125002176963482,-0.478295229714118,-0.269516966704011,-3.16994977429117
414,414,0.00126227723471403,0.0772806286403759,0.997040526130921,0.0476666072617999,0.0652332883731579,-0.0507610244203724,0.192836610398829,-0.458806440777851,-3.2493502023173
415,415,0.000885108540281232,0.0775679112108534,0.997016302252042,0.0225806353835925,0.0563008962785376,-0.0767393996044228,0.30141640002532,-0.692210504083051,-3.15296005008816
416,416,4.93918052949455e-05,0.0769923533533333,0.996900613501846,-0.0136643656674526,0.0385651763545688,-0.0908549135961345,0.42048219945522,-0.878164289488911,-2.85242020793437
417,417,-0.00116513619310133,0.0757895108818671,0.996692676787018,-0.0588073077974054,0.00952423742916702,-0.100494463531931,0.908096549130619,-0.783958803867045,-2.00360183751345
418,418,-0.00255762082934981,0.0742994564655912,0.996464788503717,-0.101305457195519,-0.0213701669408544,-0.10360238228245,1.20514878995125,-0.52551712999041,-0.940011905800591
419,419,-0.00392626305230055,0.0728622582986099,0.996287896209366,-0.130579182149314,-0.045453219810055,-0.0979956777211324,1.15255033633716,0.2674132986965,0.361425101417584
420,420,-0.00506802675194762,0.0718179374078878,0.996231880478356,-0.142018785933498,-0.0609151824201221,-0.0832187901331429,1.23865852268157,1.36395229999574,1.89333794607493
421,421,-0.00606696749330135,0.0711605843921069,0.996295064185213,-0.134209558607213,-0.0549281998472557,-0.0535494159840556,1.99327610159327,2.15527603983959,3.86327586727929
422,422,-0.00705760389057436,0.0706666723991236,0.996427982426566,-0.113087292994512,-0.0234261463612255,-0.00959430605606054,1.84555568647631,2.53927165856679,6.06774433507673
423,423,-0.00791179688652907,0.0703481073362349,0.996627845519725,-0.0773014275926396,0.0181525673580844,0.0390971300046238,-0.020941331584001,2.25043253815157,5.61056855751737
424,424,-0.00850175484930516,0.070214912952093,0.996891264700272,-0.0287346307518792,0.0496539952990046,0.0815990813364513,-2.40745745475794,2.27673260053444,1.2582530381225
425,425,-0.00870014937371218,0.0702756601103202,0.997214308747465,0.00797214170713793,0.0634124034538152,0.105680928879613,-2.64596195113752,1.81746162777032,-1.0362635545537
426,426,-0.00829683912420854,0.0706443169784025,0.997664715873076,0.0244958845213075,0.0619603053419671,0.10683289233017,-1.64614960787047,1.24735045736522,-1.15000031560768
427,427,-0.00737659450743647,0.0713136581033286,0.998241997406404,0.0341252897258757,0.0557512001966573,0.093400629237948,-0.708534142527069,0.635295390291051,-0.930086118795855
428,428,-0.00625480514312334,0.0721099426311569,0.998839778685282,0.0411772754887197,0.0481678455703455,0.0719834973134473,-0.276221543166754,0.0424417242928331,-1.17453032246111
429,429,-0.00524682684611232,0.0728596658096075,0.999352475566455,0.0446898360313391,0.0402832510352532,0.0484990968435555,0.12356340021525,-0.31124942621204,-1.66335892009401
430,430,-0.00466787589218615,0.0733895020004962,0.999675381824927,0.0432969010967049,0.0336140239174969,0.028963265561863,0.814146655087103,-0.219590933032575,-1.98510223544204
431,431,-0.00462478488082415,0.0736217056094033,0.999780547744417,0.0346083630188089,0.0267954975420021,0.0122010770666058,1.20112341815507,0.271925145820823,-1.86686274653161
432,432,-0.00490726675526449,0.0736722073472541,0.999738018046568,0.0204257759210453,0.0187448102981721,-0.00512914090380853,0.961239639244536,0.702922981220113,-1.59896606663091
433,433,-0.00535480725844468,0.0736582658670845,0.999590622628726,0.00611753149432624,0.0122138767663161,-0.0208195357451293,0.465044778756724,0.795742982938582,-1.36554761233112
434,434,-0.0058071048565512,0.073696818976224,0.999381211663153,-0.00587579492129293,0.00924199957532018,-0.0329428027333538,0.173581304773703,0.802777145449869,-0.946114773776496
435,435,-0.00610408889058025,0.0739042571512327,0.999152580743953,-0.0111513185167918,0.0101999170796548,-0.0399958601803029,-0.0451655824853912,0.845157644555607,-0.353757796597825
436,436,-0.00626233904323871,0.0742496544014954,0.998893983989159,-0.00740630071826838,0.0154250612457521,-0.039430502717173,-0.376948155244977,0.857045754046788,0.0730133969400312
437,437,-0.00638881982562797,0.0746551134410536,0.998579235544146,0.00158195671979915,0.0246087536452872,-0.0329521749173058,-0.362651055820775,0.959542752402232,0.594740263873153
438,438,-0.0064591568164428,0.0751659698148151,0.99822744533337,0.0138327363722146,0.0360786542505592,-0.0236984900247324,-0.507093834643543,0.890138937533265,0.748039621924742
439,439,-0.00644896693292044,0.0758274854288163,0.997856828356414,0.0258602657953772,0.0484961859735809,-0.0151099463468737,-0.515960080050654,0.744991728345534,0.693896279303752
440,440,-0.00633383444607013,0.0766848808134877,0.99748453277719,0.0342017138309921,0.0594722552382445,-0.0109928243027882,-0.324712403393845,0.50784186125186,0.525995393383856
441,441,-0.00601342486951841,0.0778807262294476,0.997100587321937,0.0412621434248279,0.0696469784823602,-0.012583228832782,-0.298471959799664,0.333776327931788,0.177345017032558
442,442,-0.0055041769983932,0.0793835663539861,0.996694963637199,0.0469910685537255,0.0821406548028775,-0.017306713376371,-0.219793641876474,0.212755568453292,-0.168873231167399
443,443,-0.00495667950047328,0.0809780611104175,0.996283373788265,0.0500772607498899,0.0951698559179484,-0.024283977063592,-0.238558782614337,-0.1323070744509,0.0795410416477697
444,444,-0.00452145308388305,0.0824496904994221,0.995880853806405,0.0489213418834891,0.103193575994591,-0.0278976653365463,-0.0105034284782213,0.27974337607578,-0.747150640284603
445,445,-0.00434901003919766,0.0835848013554265,0.995501893953393,0.0398977550499765,0.102700476819613,-0.0301616066967252,-0.207327135740709,0.218905656994149,-0.461689199817009
446,446,-0.00451877595749832,0.0844165426430063,0.995145700571702,0.0215512386925854,0.0956420349051632,-0.0269564839886942,-0.154419065213482,0.193560230455655,-0.326356716133406
447,447,-0.00493038990989783,0.0850880609739328,0.994803365890227,-0.000392533834109577,0.074479233075278,-0.021772845171924,-0.227168471301483,0.395320928397121,0.00903873770562676
448,448,-0.00546457923667859,0.0855511492319368,0.994476865548925,-0.0270160615802618,0.0493679792349836,-0.0160455001656014,0.0758700482323207,0.185760992225757,0.285203344803892
449,449,-0.00600194393271435,0.0857574524776203,0.994168116011157,-0.0535178657118899,0.0252724217741876,-0.0122518372135509,0.119596613939061,0.00288023620738536,0.887684953028189
450,450,-0.00642298878343376,0.0856585311792439,0.993879067068586,-0.0705754296467664,-0.00940676455821146,-0.011705199162267,-0.17349606782778,0.301076203779084,1.19152928132973
451,451,-0.00674963524782463,0.0850596156747488,0.993603958996227,-0.0682327120654132,-0.0530571651846039,-0.0176237302336105,-0.515431616610984,0.439438008693574,0.669212823778051
452,452,-0.00706147409993018,0.0839940025120565,0.993344459101335,-0.0486876992107815,-0.0851327143131279,-0.0275271009701224,-0.898644065946781,-0.0123827866466316,-0.185215792748546
453,453,-0.00732563747611911,0.0827548991396377,0.993112964287961,-0.0196130624943012,-0.105246082239897,-0.0385241992328278,-1.01045102443593,-0.370371855826011,-1.15808887913328
454,454,-0.00750942390931636,0.0816345524136314,0.99292049017909,0.00535691037229704,-0.116658600213572,-0.0484296382849549,-0.824654586205547,-0.198007513761935,-1.71525037865533
455,455,-0.00758019756301691,0.0809240772055044,0.992776311630924,0.0160715038551522,-0.115029244884172,-0.054738900886101,-0.702539676552324,0.105457354798937,-1.56893647414748
456,456,-0.00741704157282513,0.080640088941855,0.992654227818437,0.0135049428528221,-0.0886882763969317,-0.0573940232971024,-0.724590044386157,0.0903891294105159,-1.23964915000441
457,457,-0.00704258762243897,0.0805871219553867,0.992548390329052,0.00418374413755806,-0.0494037484410246,-0.0582603731998574,-0.506174675100446,0.516952099740363,-0.51775245248077
458,458,-0.00663929877599025,0.0807377172057909,0.992496368229645,-0.00420914216002219,-0.0058204575514873,-0.0552151172487915,-0.433358967279807,0.984493644197915,0.112827791830951
459,459,-0.00638925484722153,0.0810649205498278,0.992534921901262,-0.0153384091436623,0.043154128141444,-0.047413913741258,0.571529938033547,0.507653037788089,0.762574041192835
460,460,-0.00647403629219568,0.0815424005701986,0.992700011630887,-0.0280202743817625,0.0818660218511096,-0.0339659030070969,1.47905205672951,-0.0927704144570286,1.23625847123979
461,461,-0.00711873621210546,0.0822992813011929,0.993009185379227,-0.0426200611830665,0.0956095363110661,-0.0103553152194381,2.20979971960078,-0.422396848093864,2.21673163614202
462,462,-0.00820215111016508,0.0833528769654226,0.993436358112535,-0.0558266860941369,0.085052066621551,0.0231173085305073,1.98076179553403,-0.818368068243632,2.71772895800659
463,463,-0.00938566367551138,0.0845103535671574,0.993950677286727,-0.0668719185426558,0.0625272265989989,0.0592363542131108,1.71724647205091,-1.3056087779187,3.15672646620502
464,464,-0.0103303105890457,0.0855794900777467,0.994520965270691,-0.0745088059583598,0.0415121040250674,0.0906543765314452,1.61459013224773,-1.72628759626502,3.06344621643901
465,465,-0.0106969530847687,0.0863683549611168,0.995116025804686,-0.0714848306112557,0.0313903045915435,0.110647541183696,0.904002751853784,-2.00309166907269,2.10205811641746
466,466,-0.0103543603758792,0.0868222296264413,0.995786321453048,-0.0494233210996414,0.027184454707274,0.117880920606261,-0.374628008453557,-1.88216204033051,0.670941935338419
467,467,-0.0095278836366856,0.0870701845646597,0.996550141676148,-0.0122109493048722,0.0196545335461644,0.117180536877608,-1.07284208420714,-1.69831489214594,-0.0724270010366824
468,468,-0.00841334943864609,0.0871956455911364,0.997327792820421,0.0330622864070119,0.0082653616971625,0.110892696193718,-1.4789521858359,-1.36370315775264,-0.701231919363711
469,469,-0.00720652798401561,0.0872816870810471,0.998039335514988,0.0751119480792522,-0.00447339849824518,0.101377164447714,-1.35807490675311,-0.888502327676886,-1.08711451800541
470,470,-0.00610300583643518,0.087411233338818,0.998604688059597,0.103809078626872,-0.0140879735117582,0.090489159385935,-0.946376670363998,-0.568429047217104,-1.38112847559823
471,471,-0.00502594917071504,0.0876455465311076,0.999021720645223,0.115356158149961,-0.019237374865879,0.076032856100096,-0.255251035653876,-0.326949737625807,-1.33147566841348
472,472,-0.00384459621106292,0.0879290490175882,0.999342292265151,0.115831467676185,-0.0208395227318423,0.0564860604224162,0.378036796489161,-0.252176310762521,-1.2910203796352
473,473,-0.00267361401447799,0.0881693650551006,0.999567663932162,0.110957530545295,-0.0218033507334128,0.0347629182383505,0.607334394230554,-0.395639297693489,-1.48773445633424
474,474,-0.00162790146399028,0.0882740020769988,0.99969960935464,0.103720842869735,-0.0237969315145598,0.0136306266535806,0.776439311712914,-0.57131511052107,-1.66206488980154
475,475,-0.000822646547546688,0.0881502962836954,0.999740518564277,0.0962736117305656,-0.0283947841473616,-0.00439968570068369,0.944586006424784,-0.899649667590087,-1.52572676884825
476,476,-0.000327454575456733,0.0877733690102415,0.999674860109799,0.0886989591551415,-0.0367100790681361,-0.0186016660689629,0.88331227462244,-1.23497076553574,-1.29793776885476
477,477,-6.6238563354743e-05,0.0872039835845073,0.999503426551945,0.079951831996979,-0.0483456457660838,-0.0304751016835841,0.622389216465636,-1.52228760380615,-1.0071039033021
478,478,6.42431767866676e-05,0.0864781783359173,0.999253454356383,0.0715318236112003,-0.061377115449594,-0.0400723607431934,0.238906662093639,-1.62623091413019,-0.764406373781386
479,479,0.000167484288272621,0.0856327030520844,0.998951740489396,0.0654627483911896,-0.075335345973055,-0.0476196140585569,-0.112364872471129,-1.57392489182727,-0.576367607342493
480,480,0.00034726301977217,0.084705182836642,0.998624375295867,0.0631514690568329,-0.0875289709326481,-0.0531039464267419,-0.445061632624765,-1.39265554177405,-0.462627280802436
481,481,0.000641550602750933,0.0836472850101459,0.998240905559294,0.0648749814846455,-0.0968555061296104,-0.0568679372280685,-0.628111114643918,-1.12698851452887,-0.480459540267139
482,482,0.000980726820093964,0.0824353794310612,0.997787947689092,0.0684290723923253,-0.103856127423202,-0.0589314873544658,-0.551456723673996,-0.735535729775455,-0.421058828847086
483,483,0.00130739554999421,0.0811442713623847,0.997315111440938,0.069705232047444,-0.108836620132516,-0.0587214655153474,-0.493703668086201,-0.352173576532934,-0.174170451356384
484,484,0.00156424932047126,0.0798477671925627,0.996869838092603,0.0665274431420905,-0.111856913450611,-0.0558324279049518,-0.514329008683343,-0.114047526099514,0.0557394425389585
485,485,0.00169412823850964,0.0786186033709443,0.996497294932396,0.0563354015840829,-0.111499520513816,-0.0509410906523765,-0.475476215443885,-0.115188839697668,0.736001936031779
486,486,0.00168520051109983,0.0773675221670027,0.99618458965507,0.0353376299052225,-0.107451125684927,-0.0404443401633298,-0.0464154992308171,-0.302690885998322,0.224386122956854
487,487,0.00157510510676001,0.0760450494874514,0.995901378938416,0.00430858393023105,-0.0957161169956918,-0.0299876377815472,0.404591297617279,-0.580626348079009,1.20440240290745
488,488,0.00138148775712125,0.0747836112527203,0.995664515205354,-0.0225888830350431,-0.0812807234667985,-0.0164245197126117,0.655184575312407,-0.612264922203325,1.07678516934548
489,489,0.00112272815596653,0.073716511707135,0.995489974289234,-0.0409238118971854,-0.0684340276772462,-0.00329376645364088,0.720685091738828,-0.110286063500077,1.14234275708246
490,490,0.000817892633609896,0.072977888883368,0.99539318755917,-0.0531893334948879,-0.0523052295216746,0.00878277850035297,1.10225608249823,0.448993363034193,1.35600168784034
491,491,0.000362354145075598,0.0725537524705311,0.995403044830278,-0.0592231746078445,-0.0249094033204999,0.0241612097410062,0.643778505804315,0.429672631979496,2.09556012936694
492,492,-0.000254950904335608,0.0723570015192738,0.995508916385113,-0.0636838831024049,0.0160045177227064,0.0465219558302149,-0.268371036939906,0.277291218558315,2.38728146797348
493,493,-0.000874760660835968,0.072411407198844,0.99566717483148,-0.0580953155862999,0.0532082297334391,0.0680687472069405,-1.15147458193771,0.829172536362085,1.78496405343839
494,494,-0.00133869172681183,0.0727386410174672,0.995834354765393,-0.0446704224255375,0.087254409647779,0.0823322806392047,-1.28339341737073,1.05524725714158,1.12524791946528
495,495,-0.00148928527525303,0.0733584206409878,0.995967014517151,-0.0245835784057885,0.106427364649285,0.0836816601337568,-1.41890141677223,0.906314304578345,0.217953525472966
496,496,-0.00114074036569979,0.0745842155854797,0.996066882003067,0.00977804286676352,0.107096567262295,0.0650742369700916,-1.70833041992727,0.566763504821659,-1.54093549501655
497,497,-0.000398766780316767,0.0763993572088415,0.996165815574069,0.049240080913375,0.102477585862299,0.0302916819448619,-1.53580443778677,-0.00218812887474089,-2.99933601091119
498,498,0.000456344445044435,0.0783289294060788,0.996264299117426,0.0788826784339376,0.0972462030841871,-0.0108600281664509,-1.25026384751732,-0.655944690282871,-3.41003506715448
499,499,0.00114445228615394,0.0799004148988413,0.996360903443611,0.0906151741084772,0.0880537460779654,-0.0484038106339651,-0.601526053343206,-1.19320424767381,-3.13626720720895
500,500,0.0013856355407338,0.0806435303855705,0.996451956064564,0.0775747983589941,0.0773438877207027,-0.0725835390986772,0.472454520486739,-1.62787384877689,-2.39537219112139
501,501,0.00109025093175601,0.080338608659888,0.996524765734018,0.0417466849325332,0.0615097723211088,-0.0798304708878547,0.681010419003404,-1.70970521977628,-1.8059557193201
502,502,0.000444307720153879,0.0793017213531061,0.996580340943215,-0.00561605572028157,0.0318497914059062,-0.0765619257198696,1.33267802102725,-0.737517937519327,-0.616257506549884
503,503,-0.000418179934186463,0.0778666679955747,0.996633381653958,-0.0497152926953587,-0.00770785155940551,-0.0665358565891472,1.98303780873085,1.23212989599503,0.133750627013193
504,504,-0.00136269008301574,0.076366300129509,0.996698091174214,-0.0867510091453299,-0.042039779521153,-0.0522883005359963,2.08474050608098,2.24142906337727,0.301716086014735
505,505,-0.00225412374785777,0.0751326824572617,0.996788344531202,-0.115609211507049,-0.0572066905881482,-0.0377986398945499,3.10124524483946,2.49456169225442,2.19030403326605
506,506,-0.00322661217744888,0.0740724778916206,0.996906357972947,-0.125225721661756,-0.0488530854026993,-0.0193248809520648,2.72439103706195,2.51732280691202,3.68060609730514
507,507,-0.00436951131041476,0.0729640579682462,0.997040320708978,-0.114613152627569,-0.0270075634320447,0.00503939358751757,1.26705261159764,2.10913636968741,3.9061769159769
508,508,-0.0054801677835845,0.0719461186013277,0.997182746074177,-0.0855333337664394,-0.00510403479163957,0.031073481234516,-1.23815904408196,1.55270774368634,1.72342249013927
509,509,-0.00635612004508762,0.0711570241172771,0.997326173287588,-0.0510795657320465,0.0101503252022276,0.0520680099657119,-2.64528997009076,1.30398250600727,-0.234503701179994
510,510,-0.00679521010815253,0.0707350103962834,0.997463240587711,-0.0264083322634834,0.0162771460626706,0.0624906574969423,-2.31316971777959,1.32265005586835,-0.815844311974505
511,511,-0.00658463422156654,0.070808553926646,0.997624928437585,-0.0103030234625525,0.0162629228441151,0.0585096780332757,-1.41346178773329,1.06320728597655,-0.970406976489885
512,512,-0.00585902121059727,0.0712847024935916,0.997813843724778,0.00417001211148904,0.0194657824250669,0.0444074458120228,-0.983194213328673,0.402468380636775,-1.21688284682738
513,513,-0.00493752865121091,0.0719700065536172,0.997979961556347,0.0150221805103784,0.0219398833497458,0.0249990192502283,-0.647080639205002,0.0664514477664767,-1.44079384252277
514,514,-0.0041392187732183,0.0726715132112232,0.998073953139131,0.0192066962735288,0.0208100027821255,0.00431294807157394,-0.00813311203338615,0.143041682041076,-1.56124188170896
515,515,-0.00378300641241702,0.0731965650584538,0.998047517159524,0.0174795716215313,0.0192579039073732,-0.0124031558861811,0.484681791875101,0.474921617435,-1.66096104422709
516,516,-0.00398820179070098,0.073509488219206,0.99786408832244,0.0090340052239641,0.0205508994170874,-0.0246738511008814,0.683704403823308,0.768164879617914,-1.52884508675034
517,517,-0.00454199103951565,0.0737397621855035,0.997556871719254,-0.00597332336655009,0.0228261311338581,-0.035996762641496,0.641605762595516,1.00177419205135,-1.36157671681527
518,518,-0.005265235389554,0.0739423392289872,0.997182903239576,-0.0237451024994315,0.0240629361089163,-0.0453388877428562,0.630976973793715,1.25927942904666,-0.791330953953689
519,519,-0.0059791914689296,0.0741717520891999,0.996798885825263,-0.0392308387240809,0.0231746589521366,-0.0517104468344354,0.319100547510483,1.46592737404739,-0.202132600524464
520,520,-0.00650546454819989,0.074481993890562,0.996460934456901,-0.0476087101384454,0.0197726386195594,-0.0537545910036204,0.0410993000711896,1.62652099323292,0.303871025033742
521,521,-0.00682782348453312,0.0748475230755421,0.996180861484563,-0.044859332549782,0.0165435477122858,-0.049971896218916,-0.217713410310551,1.4775708055626,0.499165506686705
522,522,-0.00706611643945916,0.0752316150133189,0.995924122488361,-0.0327526699144548,0.0152835356933031,-0.0411671865305889,-0.395293935581922,1.16945623497274,0.583274800660058
523,523,-0.00724595286310929,0.0756711686645287,0.995675898980523,-0.0196365301813117,0.01601933971015,-0.0294774600394074,-0.416252833261434,0.857703148891895,0.697251557993419
524,524,-0.00739257996903952,0.0762034250720855,0.995419800358758,-0.00660893713401073,0.0199809060426701,-0.018146390500078,-0.357917003513439,0.471477162444437,0.662344762443013
525,525,-0.00753092404986895,0.0768660581441718,0.995137809334669,-0.000743553184018561,0.0255814380941841,-0.00983440848792401,-0.424908075453124,-0.000276433896960568,0.884007805538979
526,526,-0.00760571374618596,0.077738667318857,0.994797322416226,-0.00324104401531385,0.0349735661814605,-0.00160485198936907,-0.295271729953638,-0.147929425628777,0.612735296393585
527,527,-0.00760038925350547,0.078795666856203,0.994410322558463,-0.00903058234016027,0.0455692224015696,0.00333500859916516,-0.172167788984248,-0.204997086738285,0.597112057856265
528,528,-0.00759761949564312,0.079917202908377,0.994024990357458,-0.0115727923752348,0.0546131903040509,0.00723791070887472,-0.127878200764063,-0.0715360738668946,0.295801720285696
529,529,-0.00767987483183303,0.080983534126289,0.993689891679197,-0.0157224695634735,0.0590417101890502,0.0093342268839399,0.136489922461118,0.0366963283274951,0.423663079175132
530,530,-0.00792940520331855,0.0818750872380393,0.993454135899922,-0.0225464055457587,0.0586686693541712,0.0109524031041316,0.247541224293286,0.0789882917989458,0.582312719443515
531,531,-0.00845861398318614,0.0826796538354822,0.993341592595158,-0.0340226356898857,0.0549894294053213,0.0131829760627063,0.23394603428951,0.0198688683410585,0.370684564433857
532,532,-0.00921218766969659,0.0834761474130788,0.993323348876813,-0.0468239404542001,0.0457896443143757,0.0156643278974911,-0.0434334226614592,0.239790138603258,0.369818224359718
533,533,-0.0100208246858177,0.0841323480686996,0.993368487005916,-0.0573987484566921,0.0261423792527341,0.0191088487350497,-0.645475505135241,0.661184739146788,0.621098391093425
534,534,-0.010715550732825,0.0845169164638647,0.993443732749468,-0.0621595379276844,0.00532518820308741,0.0212344182015384,-1.59832044195136,0.750456846732164,0.296171454764472
535,535,-0.0111276903654757,0.0844993174130419,0.993513269077521,-0.0600469526800967,-0.00750184945491194,0.0200743222272411,-1.56039874795926,0.643280799126304,-0.378576992037786
536,536,-0.0111482407319871,0.0838033392682526,0.993595862241725,-0.0472272030778381,-0.0179232979896941,0.0120613328807484,-1.30960758571227,0.243158926366349,-1.23074711561785
537,537,-0.0108901685342009,0.082517874361461,0.993714606625038,-0.0320150778340844,-0.0277419191816046,-0.002418335802175,-1.02207722934209,0.0708343625080562,-1.48296978164649
538,538,-0.0105177644542385,0.081059490914034,0.993838237706414,-0.0159148850287451,-0.0355030876955382,-0.0182768158341688,-1.05859395924588,-0.18593936413414,-1.75869137025076
539,539,-0.0101951088536489,0.0798432955091373,0.993935336326889,-0.00475565830962686,-0.0424632892801052,-0.031353533447682,-1.03967792718014,-0.103743940546782,-1.11317386136941
540,540,-0.0100860486203338,0.0792830386485703,0.993974177095919,-0.00266598241298572,-0.0480883369994025,-0.0371488097215483,-0.881981968959355,0.309163788299523,-0.304702083211595
541,541,-0.0102603536555078,0.0795583570511973,0.993903746198751,-0.0108474369947865,-0.0382964497078915,-0.0336667223237551,-0.30385961202182,0.0860535930002128,0.55369902593958
542,542,-0.0106092993227537,0.080391501752486,0.99374422125765,-0.0225243874934955,-0.00641034487863573,-0.0235561455530049,-0.128533755788897,-0.402063479444492,0.398478314311474
543,543,-0.0110284655452651,0.0815099401374389,0.993569919485234,-0.0378343124477113,0.0353176108290138,-0.0099230154979341,1.07270813302302,-0.777123115622352,0.401414955070916
544,544,-0.0114127073299115,0.0826418937329805,0.99345476101755,-0.0536708473053866,0.0696960312174101,0.00453525216243454,1.81749504176682,-0.668465140589038,0.991952882195335
545,545,-0.0116561114067932,0.0835162007453336,0.993472458820011,-0.0611121918953282,0.0837151502135949,0.0170960951758422,1.48445960644898,-0.577734567742159,1.17433942746953
546,546,-0.0117909528890407,0.0841177540127727,0.993641649660158,-0.0619982546260612,0.0704775908335639,0.0289571926630498,1.10854387483206,-0.435440351815567,1.51271568474802
547,547,-0.0118869631712748,0.0846267748640681,0.993911698658011,-0.0605087604388838,0.0398171740246926,0.0429079892861617,0.876201483178602,-0.634686366623991,1.41990092178978
548,548,-0.0118940446356428,0.085066490579984,0.994252228487102,-0.0554542077097247,0.00609184887329797,0.0558313442760494,0.748717369671951,-1.10252670915949,1.10854024659637
549,549,-0.01176220876067,0.0854614513985521,0.994632556867929,-0.0480193766219841,-0.0197893667145459,0.0653334437418524,0.506329227102803,-1.72176905197764,0.779651781672955
550,550,-0.0114415696067385,0.0858373074903303,0.995021653485907,-0.0387253328003908,-0.0339333896346757,0.0702478043609991,-0.0595355844363458,-1.74957476228859,0.355594730232109
551,551,-0.0107964035481124,0.086177393996127,0.995462952375174,-0.0256089245740583,-0.0369079147327778,0.0701878451829307,-0.361964180733835,-1.56898687001124,0.0265014620899032
552,552,-0.00985976570700224,0.0864668586238576,0.995975772734367,-0.00764919199416188,-0.0334708677609098,0.0658718075319445,-0.430218888548355,-1.24973239553608,-0.460893410516139
553,553,-0.00883494780684,0.0867339400059906,0.99649231177718,0.0116903757277193,-0.0227795863006154,0.0582622755498235,-0.172258151773247,-1.08611088463606,-0.849104322550855
554,554,-0.00792508260003638,0.0870059159619567,0.996944478034426,0.0271538444081204,-0.00990455606960853,0.0486005009801182,0.366102195046421,-1.03120515319385,-0.759022151638802
555,555,-0.00733311883978109,0.0873093046535841,0.997264100615973,0.0379266546606356,-0.00371337083319745,0.0390170031964988,0.539932688851181,-0.804363807716501,-0.72753469053418
556,556,-0.00712671224166754,0.0877293378576669,0.997440166610292,0.0450500236931918,-0.00570295734643667,0.0292142896045105,0.611389938583893,-0.5393861809333,-0.772655480400086
557,557,-0.00717019048909232,0.0882475266093953,0.997517184480658,0.0497912606668342,-0.0103588951042917,0.0178608683817317,0.747747444858689,-0.484544511118417,-0.838642823089237
558,558,-0.00736154719962056,0.0887342610632457,0.997510410508855,0.0521576616083433,-0.0136928837000571,0.00567376240993166,0.805296136521859,-0.648275251894022,-0.875863685541536
559,559,-0.00759908361977826,0.0890598376810303,0.997435247483118,0.0555484939403451,-0.0212386881881888,-0.00488510242983249,0.571921449555687,-0.54805189873713,-0.91367724530106
560,560,-0.00778148919724593,0.0890947221585906,0.997307417537731,0.050161745670002,-0.0165918058154332,-0.0158380951105875,0.819287534839557,-1.42928522995093,-0.501358428818245
561,561,-0.00790995959023751,0.0887595434891753,0.997098857112043,0.0455845881856535,-0.0176470534954359,-0.0239905294787372,0.228321140256616,-1.27149324344806,-0.513376962833633
562,562,-0.00805309570687577,0.0881404831902108,0.996801230813959,0.0425491956979375,-0.0271693449395406,-0.0297009759959502,-0.0753456086770291,-1.09623594256277,-0.603118113937468
563,563,-0.00821085999966617,0.0873567775500018,0.996460152981614,0.0382074899772903,-0.0355519694924593,-0.0338324309950264,-0.125010705404054,-1.24641157807934,-0.411583025320733
564,564,-0.00838288863187898,0.0865276100044025,0.996120717314208,0.0325740623821031,-0.0431146053401511,-0.0361627216098336,-0.00303794054972009,-1.07344434412518,-0.210240797308275
565,565,-0.00856837926612224,0.0857719741478428,0.99582715224318,0.027153729133075,-0.0475473776065964,-0.0364092732594161,0.0468457260168215,-0.704523416517133,-0.0173394992295043
566,566,-0.0087744543573093,0.0850883149636191,0.995574069186114,0.0220056904715763,-0.0489012721990655,-0.0342918348869904,0.27771853299233,-0.332881977917952,0.183469296413258
567,567,-0.00900242786120931,0.0843983991564962,0.995335275852493,0.0167997325191138,-0.0473982917747123,-0.0299784724972793,0.328701998569986,-0.0546825782329907,0.337172285981884
568,568,-0.00924203862795062,0.0837055256904599,0.99512199797769,0.0103037178480208,-0.0440119668196589,-0.0242527646462152,0.442616894880845,0.24843067496484,0.514895450909084
569,569,-0.00948248204171853,0.0830121691789979,0.994943897224809,0.00184145757572566,-0.0406427938556074,-0.0177586693993087,0.460381328681082,0.357681325886527,0.880946623370036
570,570,-0.00971244597118694,0.0823199581605212,0.994808953780977,-0.00926441042353232,-0.0367461565856946,-0.00964652979853381,0.570801203936018,0.376354219152288,0.516461284333467
571,571,-0.00997960430753508,0.0815666964592034,0.994682138512372,-0.0202781204189424,-0.0362608855919272,-0.00124206663132784,0.484185119448046,0.248590297772077,0.815322759003784
572,572,-0.0102911042274259,0.0807502288642435,0.994558178017132,-0.0301232006947259,-0.0403962418485409,0.00811685785022977,0.434152361382029,-0.00446764837250454,0.835722318799522
573,573,-0.0105743026028807,0.0799625621863985,0.994487915687135,-0.0368997562405461,-0.040386300020137,0.0170821026320161,0.558625434142555,-0.141589196378733,1.04533415989773
574,574,-0.0107562050898185,0.0792967018980484,0.994521451723396,-0.0373915896168125,-0.0389289759896282,0.0267277009342402,0.206142365913573,0.123675421572506,0.783349921667225
575,575,-0.0107635390384355,0.0788464828407841,0.994708414328785,-0.0351577172638676,-0.0328131603838699,0.0358046520983041,-0.0600866207042806,0.271415556546386,0.78099235535164
576,576,-0.0106027180944783,0.0785819606869019,0.99512948511121,-0.0318681414937996,-0.0140769656149488,0.0507904465432543,-0.360741876371121,-0.120233971783084,1.44786753726479
577,577,-0.0103216084713793,0.0784427347821736,0.995750936738857,-0.0288913986695981,0.0132627050683324,0.0717255715939009,-0.860738306896277,-0.0241074253546647,1.66548641168904
578,578,-0.0099092778787981,0.0784761135484109,0.996450933930015,-0.020062755966639,0.035539665182824,0.0908370575128287,-0.949826813128147,0.584662629926594,1.6525470304848
579,579,-0.00935516881558723,0.0787274547113615,0.997107992983343,-0.00872630119321511,0.0551598551296605,0.101813813188588,-0.615519946098264,0.838750898639774,1.40548431999411
580,580,-0.00864902873494694,0.0792401203287079,0.997601458329348,0.00942601759772678,0.0702143506743628,0.0990335934222769,-0.710137039342421,0.435584268581727,0.482437021786325
581,581,-0.00762041271326319,0.080223536648922,0.997934681410407,0.0345848027549484,0.0764017923643278,0.0764842115118901,-1.15826564968314,-0.0760721281874858,-1.10481953929059
582,582,-0.00627600049981463,0.0816427930449067,0.998193434202555,0.0748666941224302,0.0771293178714084,0.0367077432471369,-1.12217581743664,-0.51322891328788,-2.53006707717712
583,583,-0.0048716129107007,0.083176015786931,0.998380436807583,0.118028915794341,0.0780212407921722,-0.0111922057891192,-0.940641357759422,-0.852693717277986,-3.59591738872036
584,584,-0.00366364802500363,0.0845060677633066,0.998495444725384,0.140923786917265,0.0823058245379208,-0.0550450474548629,-1.1491175172987,-1.70099796504512,-4.38099760737493
585,585,-0.00290910711222231,0.0853206658993867,0.998534461791332,0.139139157098532,0.0793426765354526,-0.0860853979830926,-0.551303043181435,-1.8229296395471,-4.16941285230279
586,586,-0.00271318030509417,0.0855084856234779,0.998450595527253,0.114290075104009,0.0630354262451277,-0.104680581733078,0.30100206231177,-1.57690907423631,-3.40897571413358
587,587,-0.00290663465116416,0.085282775263488,0.998247922795881,0.0811528469438024,0.0385507458831967,-0.11752595185019,0.908753577710582,-1.2669429926724,-2.70965115893031
588,588,-0.00333432860164774,0.0848195411973869,0.997993888655463,0.0429380023475029,0.0146330945960755,-0.123077993773689,2.22359232986192,-0.719213141784833,-0.84329174350422
589,589,-0.0038395499773561,0.084292666378607,0.997753058107607,0.0116511178614071,-0.00792333695742699,-0.120071874872476,2.2656653568509,0.456306491897788,-0.11792018742118
590,590,-0.00426388747833186,0.0838740140313634,0.997587484359389,-0.00837765698114021,-0.0242659520937706,-0.109203757121238,3.0977573468289,1.65279633530266,1.26713348119557
591,591,-0.00472994554547597,0.0834831115515378,0.997474106058159,-0.0170013979495005,-0.0205548163196932,-0.0849969958639048,3.92042660670624,2.65105252803172,3.62839860149926
592,592,-0.00534132134646896,0.0830037077612005,0.997367049959099,-0.0170527330779564,0.00236672077196592,-0.0471505868223044,3.15108670497771,3.14123020699498,5.19776724153366
593,593,-0.00591039683834319,0.0825533020092895,0.997291967145573,-0.00131725281510995,0.0311482457707729,-0.00526577067975575,0.660156860823811,3.0151852931697,4.90563320851256
594,594,-0.00625051721217181,0.0822508152309942,0.997273885813526,0.0324325079967626,0.0557109451100129,0.03428265678418,-3.2472090306826,2.32435130536262,1.05992984887155
595,595,-0.00617611107849933,0.0822164793596677,0.997337530795474,0.0633203516491956,0.0685800665908672,0.0590947985245098,-3.78978359017994,2.18919921313122,-0.874638410839671
596,596,-0.00550957020971729,0.0826098545563534,0.997518636559695,0.0761846212529135,0.0717525670042557,0.0647763214946433,-2.25806660925437,2.08573584742402,-0.672258743448542
597,597,-0.00437484534592834,0.0833510665245409,0.997796831869765,0.0812766655629654,0.0734826406955651,0.0592461027469761,-0.756782117995015,1.64016802942951,-0.0101654566745983
598,598,-0.00303930714934316,0.0842015342314863,0.998113104886515,0.0860432132385524,0.0749058701449274,0.0480867446224868,-0.879326066303545,1.01155941481682,-0.394213224677529
599,599,-0.00177023508161423,0.0849229107269444,0.998409419144914,0.0846807124283097,0.0724592488567113,0.0350616583253453,-0.641279999657546,0.625422672102888,-0.740687263272089
600,600,-0.000834739637684181,0.0852773693461538,0.998628663892483,0.0770830647660853,0.0654495807485265,0.0241948108397733,0.141620284855838,0.448488985438421,-1.08668345994132
601,601,-0.000282652803441866,0.0851413827807213,0.998778407372194,0.0610459817261836,0.0521070636133115,0.0148989050098886,0.883382859222968,0.291393724943248,-0.988649450375234
602,602,6.44403428073877e-05,0.0846739371484791,0.998898385321488,0.0384319800708429,0.0308480145680462,0.00472653223155355,1.02392971748363,0.115662539828935,-0.801727503513434
603,603,0.00028165734686854,0.0840614575930546,0.998980063213191,0.0174156985490748,0.00398548825369454,-0.00491621428787071,0.795808494076121,0.171531479591404,-0.646470659207671
604,604,0.000443517319190661,0.0834902529190473,0.999014208751547,0.00278228012531476,-0.0219186582980285,-0.0127308039723094,0.333624435897812,0.329069940846674,-0.751962740088981
605,605,0.000623906603559456,0.0831463713519605,0.998990591702149,-0.00566574896699533,-0.0384842904734032,-0.0175760990150998,0.345861867907549,0.461980438371071,-0.466218981596005
606,606,0.000791674751869114,0.0829940359290356,0.998910775398068,-0.00560534359412593,-0.0440310237979927,-0.0178438867247774,0.361201395098101,0.549636131738745,-0.27954293207203
607,607,0.000896466345159724,0.0829098174205285,0.998783951551652,-0.000816507955776467,-0.0429036589811314,-0.0146971779060844,0.633459936388121,0.677132450028424,0.122222283755106
608,608,0.000983363510041534,0.0829473823173035,0.998610065944468,0.00568805357555018,-0.0347022917879772,-0.0102036698873568,0.759887880677407,0.540017697171665,0.327350344615625
609,609,0.00109800443402673,0.0831595374674376,0.99838804224759,0.0113492011425378,-0.0202869232048447,-0.00644786354900633,0.75056276989604,0.415316241877426,0.353474934212642
610,610,0.00128653145233057,0.0835983469920046,0.998115780681727,0.0130774942892273,-0.00338895208036298,-0.00500460388800709,0.260060558348645,0.249906634364165,0.662795479321854
611,611,0.00161636741344243,0.0843814900007818,0.997779245860136,0.0169367319262002,0.0160474085912229,-0.00568477673307267,0.0336361966156609,0.360852192540718,-0.108814788934396
612,612,0.00205685673485943,0.0854723159531003,0.997381184047681,0.0249969873255446,0.0359698543445326,-0.0109928516763906,-0.607922372603824,0.269159333552263,-0.174359832247553
613,613,0.00250739237879474,0.0866916894666734,0.996943990796691,0.0312884568058457,0.054636257473347,-0.0162153011192515,-0.840124783417472,0.403831629014686,-0.318008331711815
614,614,0.00286748265737707,0.0878615418457885,0.996489834290958,0.0328853421247959,0.0706045802305382,-0.0216206149776689,-1.01135541907743,0.18490044715774,-0.619600488730971
615,615,0.00303672181781588,0.0888048846794982,0.996040775352542,0.0336692526403873,0.0805427950760585,-0.0273692830014692,-1.17886922301207,-0.105062988196106,-0.907484086175543
616,616,0.0029384342878931,0.0896615419203564,0.995563023827072,0.0241801802477332,0.0754167908240099,-0.0340191054788236,-1.2271033340961,-0.0365325278022395,-0.971631069903191
617,617,0.002639609997131,0.0905509705349009,0.995045491619724,0.00277746282898218,0.0561062390872174,-0.0422642842737866,-0.812010140030248,-0.034131006748132,-0.868962203015775
618,618,0.00225542425201231,0.091266070558074,0.99454288727904,-0.022932920918403,0.0284609174143394,-0.0509521291213235,-0.704083633736969,0.125227239249386,-0.63061111019771
619,619,0.00190110136221626,0.0915991385752375,0.994107720655556,-0.0464741309359432,-0.00605128085940928,-0.0565799879253565,-0.827017837913878,0.250400919266113,-0.181919583625086
620,620,0.00169193169774766,0.0913417288088373,0.993790205148117,-0.0581425129848325,-0.0402456058966364,-0.0589152558307203,-0.682441670682557,0.0240506182655737,-0.138916189393075
621,621,0.00165174401162096,0.0901163176596098,0.993602728879899,-0.0547823989242238,-0.065515472477567,-0.058339602303156,-0.286662465519761,-0.227347957063006,-0.357272975712701
622,622,0.0017031504419594,0.0880625382143761,0.993511785988112,-0.0401857092848805,-0.0882854993744331,-0.056352663315784,-0.44786076645772,-0.568226178800677,-0.215525425142895
623,623,0.00180997157209464,0.0857462283418664,0.993496606306014,-0.0246434780358041,-0.105729870671494,-0.0521332520434836,-0.322630196936892,-0.554819434741702,0.0987878070635942
624,624,0.00193654070754333,0.0837318227744371,0.993535598089805,-0.0120198243678673,-0.118844313779615,-0.0443787203444033,-1.2486343214794,-0.382811624411106,0.455623709286504
625,625,0.00204771026375594,0.0825824991571931,0.993606097660027,-0.00742604445238056,-0.123214367343239,-0.0335656439620493,-1.57002152790181,0.0276667598006616,1.17371090804131
626,626,0.00217315523730403,0.0824853332852878,0.993687545530603,-0.0108598834371015,-0.108559678195381,-0.017639522929717,-1.31342111745848,0.0240150355694772,1.56215013234737
627,627,0.00233604428590564,0.0830619230109777,0.993793740987409,-0.0201860521298973,-0.0723784325380291,0.00275314422192307,0.0593709073166388,0.308887104679451,1.89079157126155
628,628,0.00249194441828264,0.0840278158097085,0.993951663874167,-0.0337130058159056,-0.0136928354777741,0.0244721271638957,1.76462945143511,0.216107170069732,1.93762791533784
629,629,0.00259716649931689,0.0851001367031077,0.994187300358653,-0.0487497554427776,0.0435643901094485,0.0452659690746852,2.89532864002327,-0.038187258270514,1.61828800214078
630,630,0.00260897515822608,0.0859974082426419,0.994525969397403,-0.0580564395913145,0.0740043391419711,0.0621732135972732,2.22038526097348,0.0156525542040866,0.705175936493849
631,631,0.00242150251856679,0.0867793307295356,0.99500523864687,-0.067557026270299,0.0746098766221147,0.0753340596193617,1.97508434331713,-0.318109695983363,0.982983654722613
632,632,0.00206424424362725,0.0876346789862133,0.995604809645448,-0.0781024070285123,0.05732993501742,0.0876062807389892,1.60193971568436,-0.678054898866931,1.52442815986136
633,633,0.00169795531556315,0.0884769019272178,0.996263336701902,-0.0872570736801473,0.0375183430755091,0.0980075786937188,1.04435988037746,-1.294397162544,1.4451563516828
634,634,0.00148313542450329,0.0892196443919883,0.996920054902493,-0.0896405682426632,0.0247607942660689,0.105322023457036,0.33276014612167,-1.9675850143924,0.947508138537884
635,635,0.00158002121681148,0.0897764974908881,0.997514589633614,-0.0786359022793121,0.018090457811748,0.108127706104863,-0.636142330133444,-2.13599241646476,0.167354158829511
636,636,0.00208864645928359,0.0901217090828181,0.998081828158627,-0.0525662278220636,0.0108892375799233,0.104688438939997,-1.39744842955057,-1.72429208715619,-0.624914816145277
637,637,0.0029021986686396,0.0903142161822142,0.998660881000344,-0.0201406185938211,0.000553713420124379,0.0952959842623926,-1.32247289625541,-1.39598579866983,-0.867158873196655
638,638,0.00387066670376102,0.0903939093912439,0.999197558257471,0.0108246780272845,-0.00788424606899564,0.0812208446904796,-0.797491966579719,-1.15201545155843,-1.0489958556515
639,639,0.00484434509457431,0.0903998490336022,0.999637667216914,0.0364198390546392,-0.014963371650226,0.0646341936274923,-0.349470837574385,-0.774705306960149,-1.27632488577396
640,640,0.00567380126306383,0.0903706094773351,0.999927289553999,0.0536128220032647,-0.0217988744072192,0.0480724598262555,-0.0401022510322203,-0.352533433327568,-1.51711436724209
641,641,0.00638357491359856,0.0903304250482318,1.00004896701314,0.0628583533057313,-0.0272281129414999,0.0307323285068873,0.263252577446893,-0.217568653863422,-1.59810113599469
642,642,0.00707352286864591,0.0902525503346585,1.00003850846287,0.067314294571999,-0.030981212691153,0.0113219700742689,0.497780132865234,-0.218846021420307,-1.61513443835844
643,643,0.00770715299540061,0.0900991259025797,0.999922390114291,0.0682159893836832,-0.0334634628910929,-0.00794489064644313,0.603376436348253,-0.503255984221126,-1.50520727283804
644,644,0.00824780569180096,0.0898324749473701,0.999727258147045,0.0666364337931491,-0.0347782803673714,-0.0250782080822319,0.669364695626616,-0.822696264129332,-1.26140944812335
645,645,0.00865868310803903,0.0894151653522602,0.999479884788673,0.0645852723506764,-0.0377897085535721,-0.0378528018984366,0.581965911797403,-1.03300538406977,-0.913867965407425
646,646,0.00887277820480266,0.088812259066955,0.999143327474069,0.0611785949610512,-0.0441070922022792,-0.0455158803676186,0.368084610521023,-1.11442529893843,-0.502105193569321
647,647,0.00891373707468501,0.0880492112778236,0.998702209162263,0.0563466082865868,-0.053616666686544,-0.0494447696399604,0.147987793854989,-1.11800665976912,-0.187647901419941
648,648,0.00888079350773042,0.0871792019987047,0.998215395854716,0.051198921583092,-0.0634987712659598,-0.0505426404250949,-0.0731645699355111,-1.0890483761398,-0.0051374015638934
649,649,0.00887346254653212,0.0862549473158527,0.997741063974576,0.0477307942279352,-0.073231081287949,-0.0496784133579835,-0.277752380415261,-0.848108461641882,-0.0678230017288448
650,650,0.00899161348976263,0.0853285987116659,0.997336490689304,0.0463247248619522,-0.081288872670045,-0.0480290957911152,-0.315108173325966,-0.470499212111154,-0.0364074992798975
651,651,0.00932656360772778,0.0843706263513123,0.997006509050373,0.0471436586927236,-0.0867642064912153,-0.0464074479749638,-0.509081672043373,-0.0582869221013436,0.0884594610803463
652,652,0.00981128358544768,0.0833462212314357,0.996715011941716,0.0490223405586735,-0.0919873981333778,-0.0430039746321792,-0.526296843133453,-0.0591785990947124,0.505211304045608
653,653,0.0103086327656219,0.0822993137268269,0.99645657887942,0.0486468227072119,-0.0953584590679468,-0.0381666204697326,-0.546678147051062,-0.175197790583529,0.128468115794702
654,654,0.0106818100741373,0.0812738262300564,0.99622504060011,0.0454072433508619,-0.0951557325270869,-0.0320232730092472,-0.069561162361768,-0.294976231679742,0.417860086812849
655,655,0.0107943388541941,0.0803136428504131,0.996013436966297,0.0345242484214117,-0.0871227410301954,-0.0242291974831629,0.623049777098399,-0.255104582897286,0.708607342740527
656,656,0.0105409046619883,0.0793272429097028,0.995811487331077,0.0169355582744048,-0.0725071168433753,-0.0122306210137264,0.930460967798098,-0.0574071287954809,1.27845643585017
657,657,0.0100127863791913,0.0782855125454474,0.995624892124634,-0.00342613170000256,-0.0599989026490012,0.00465606227563444,0.699598968770884,0.239159221266448,1.3353368792861
658,658,0.00936877184474945,0.0773261656823692,0.995469004515101,-0.0267100708920851,-0.0435928193593718,0.0224600410227443,0.505306047132404,-0.157239543347846,1.40496742882685
659,659,0.00876791334294886,0.0765869833762311,0.995357943588446,-0.0505396964383236,-0.0220429772231289,0.0376551626053485,0.138639632380264,-0.422616634024145,1.34894139706312
660,660,0.00836948591299963,0.0762056053473063,0.99530511030855,-0.0650256525423204,-0.00268387474155976,0.0459935617041905,-0.429738128125871,-0.175809489553049,1.46422151442986
661,661,0.00820874597354539,0.0763093932796099,0.995342213952302,-0.0652500126791886,0.0217689132009074,0.0494939786788616,-1.06412779553029,-0.264139239720787,1.25746789257047
662,662,0.00818042375926039,0.0768063314103735,0.995460773900917,-0.0513547083538392,0.0485051868907527,0.0497688995833123,-1.83391308842003,0.124352843937728,0.689936673401966
663,663,0.00823285908686624,0.0775043630760835,0.99561373961719,-0.0247915741176254,0.0655346104807489,0.04561814552501,-1.97713704646222,0.778900932439697,-0.166852565896911
664,664,0.008313962542093,0.078211326739302,0.995753480534147,-0.000191213694314631,0.0786888757526668,0.037619999267448,-2.04799121683756,0.219808634958374,-1.09801489151269
665,665,0.00837109215923847,0.0787354034179522,0.995831477160061,0.0170729883236691,0.084639402103137,0.025136895370711,-1.80490717189752,-0.180597416523141,-1.96883952942083
666,666,0.00854232183576821,0.0791721672508674,0.995833482440968,0.024734969888528,0.0759085368742732,0.00254003778679725,-1.95519832897764,-0.37224953384234,-2.81253035018992
667,667,0.00886191598597261,0.0796481593786457,0.995794359679653,0.0211262773929431,0.0541009370983177,-0.0302080588379523,-1.57464286729799,-0.681534059710156,-3.17584725656
668,668,0.00912080884201203,0.0800199106160221,0.995737163064691,0.00430890070839442,0.026203205813806,-0.065119476642208,-0.714939409418593,-0.888756620105904,-2.84461429218499
669,669,0.00910982985809952,0.0801456700174819,0.995682659128277,-0.021499656593467,0.000263388944995621,-0.093128893511155,0.161126378541548,-1.12547493974154,-2.27356286369818
670,670,0.00862015377046696,0.0798850678494798,0.995649015212385,-0.048067172630368,-0.0160227422440005,-0.10439091585346,0.304285507830151,-1.16837384129271,-1.70694241172344
