,Frame,CoM pos x,CoM pos y,CoM pos z,CoM vel x,CoM vel y,CoM vel z,CoM acc x,CoM acc y,CoM acc z
0,0,0.102089442543499,-0.645250605444193,1.00143809673482,-0.0404122445404366,-0.00545101793237023,-0.0138777863719875,0.223555411840869,0.17790185135715,0.148505655011151
1,1,0.101456625779636,-0.645226778743435,1.00126841854355,-0.0470049846052047,-0.0028048668099266,-0.0125413856889703,0.122300939329073,0.142072147921573,-0.0331118766143471
2,2,0.100742929892632,-0.645225519831042,1.00120688489832,-0.0510787569286051,-0.00248629343616792,-0.0106954160689709,-0.00782115958736172,0.230516899465623,-0.109569450113758
3,3,0.0999317191868431,-0.645241889220141,1.00121859183625,-0.0547984763788655,-0.00190288640242505,-0.00831959093597314,0.184713728305335,0.287223403382871,-0.0824266798780647
4,4,0.0991280246007835,-0.645240547595604,1.00127486453998,-0.0590355768430266,0.00150124853204457,-0.00555144754357605,0.654794791545319,0.399359405019574,0.0909093369749887
5,5,0.0984368590276534,-0.645186093309933,1.00134706551781,-0.061580843266109,0.00636169032491853,-0.00257465330112006,0.990729115297251,0.515958362936731,0.435832404855037
6,6,0.0979632221888779,-0.645043056899631,1.00140658433183,-0.0591483052274255,0.0112064432122641,0.000589544727214785,0.885824853713137,0.557138609974416,0.682761667051613
7,7,0.0976738938152164,-0.644826710946637,1.00147098305162,-0.0489198808187347,0.0177374412007437,0.00495635717029395,0.420182166262078,0.539392415724114,0.709996973414065
8,8,0.0974988290403757,-0.64456066517649,1.00155945577767,-0.0327841706574958,0.0276685988069643,0.0107168684254052,-0.0275515224956659,0.440867343741727,0.611260599047877
9,9,0.0974878153624303,-0.644221918402485,1.00164596884453,-0.0139170413345082,0.0386696176199807,0.0162624995405236,-0.158401788414249,0.60783558623729,0.476561638624213
10,10,0.0976906709779501,-0.643787480072927,1.00170467067901,0.00575893705042381,0.0486831668939143,0.0201795574434292,-0.223747265250464,0.732946495176853,0.177758231443582
11,11,0.0981571979745667,-0.64323434656663,1.00170997514479,0.0217126952125126,0.0572364432863288,0.0210066854396339,-0.246681076054453,0.681720127125322,0.11756807260717
12,12,0.0990588785086348,-0.642539818326448,1.00167121818159,0.0338187013649013,0.0630630488670861,0.0186585776914388,-0.10427158379347,0.558792399102084,0.183369037843799
13,13,0.100362254440245,-0.64171892711969,1.00160689546251,0.0445546080360095,0.0688910518212956,0.0141731282102413,0.102853701468797,0.425895326051183,0.0999952620713971
14,14,0.101809797370591,-0.640805526391894,1.00150478487343,0.0544236282460379,0.0750976488439903,0.00768138259171568,0.373548687097643,0.406742819637754,-0.305543801473117
15,15,0.103144275300947,-0.639833944384415,1.00135159403046,0.0625513125969618,0.0818016962214248,-0.000815270229017845,0.929004715302114,0.449295439953858,-0.916943475642096
16,16,0.104108804049132,-0.638838955627939,1.001132901462,0.0696701207998167,0.0877419463975239,-0.0114709538943064,1.53124741161615,0.593215644729607,-1.62255627404875
17,17,0.104604122173395,-0.637782578014854,1.00083780461834,0.0732700655663133,0.0918487910794673,-0.0256482754934054,2.0183200012973,0.689216599612253,-1.84640938560719
18,18,0.104802184799791,-0.63664295725597,1.00047538017334,0.0719081309376618,0.0958216429571737,-0.0433949964821693,1.8221423181678,0.416399230922588,-1.87474167350259
19,19,0.104852836631129,-0.635478278273638,1.00005976713676,0.0664781294386358,0.0996301276412402,-0.0626825784287021,1.23058438158797,0.0348754979066135,-1.84384917941831
20,20,0.104905161305514,-0.63434537928398,0.999604587047334,0.0607823610995967,0.0975612397329733,-0.0812156070576331,0.466010201647932,-0.0779117919680432,-1.69280909611435
21,21,0.10510753015926,-0.633300047070727,0.999123769183706,0.059219263651217,0.0865986031629956,-0.0967866554049683,-0.169129187700022,0.225368542942698,-1.13324112506193
22,22,0.105384907426447,-0.632275101444554,0.998665054078816,0.0633916727546549,0.0786712623577558,-0.109126985427347,-0.586491666351003,0.0798280015318409,-1.04342281483639
23,23,0.105638240517152,-0.631232285877488,0.998220682720771,0.070544460705145,0.0843272970622437,-0.119575356581471,-0.169117260940831,-0.130586551013779,-1.35422107510434
24,24,0.105979686608146,-0.630270337156938,0.99772280634646,0.0786209758839611,0.0975577012867801,-0.12836739944735,0.538681213272495,-0.10362016824766,-1.77745743637497
25,25,0.10652071048329,-0.629487246041779,0.997103480805869,0.0912565386959719,0.104795359818632,-0.135090859535271,1.00164360072563,0.151929662966804,-1.39783942128649
26,26,0.107371936031385,-0.628979919730188,0.996294095570909,0.110877696241051,0.0944823007512007,-0.139689229180671,1.0726378874814,0.639164062887977,-0.688524370561209
27,27,0.108543124044264,-0.628759218976284,0.995183370755836,0.137030384673618,0.0632994446960722,-0.144977186756175,0.803342619981252,1.34729527600992,-0.0522297709092589
28,28,0.109959631745447,-0.628757176501893,0.993823435012114,0.160878569921213,0.0287792312538943,-0.151179174090824,0.815489915682476,1.28695259998085,-0.332629934393164
29,29,0.111605331770882,-0.628953379830157,0.992387976283787,0.181083867523433,-0.010846590211895,-0.154860581245362,0.215668497289296,1.06331863795607,-0.557482617499309
30,30,0.113464289795004,-0.629329941264954,0.991047198788959,0.210343425104615,-0.055113377578626,-0.153008985007142,-0.641916183726031,1.02223159980136,-0.255452381740807
31,31,0.115520842002554,-0.629871579773863,0.989967666758269,0.236030305926816,-0.0768884400478637,-0.143324848512302,-0.218043554009634,-0.0832984610250793,0.149805936236468
32,32,0.117791127620282,-0.630904170572615,0.989114863825068,0.247259580217199,-0.0691610694110102,-0.123999875489166,0.917172382666203,-1.62700987910062,0.768318719732308
33,33,0.120285193559374,-0.632439911308849,0.988377134094634,0.248808410221984,-0.0537238438474658,-0.095749466544971,1.32492308951729,-2.02008758794882,2.04528322900533
34,34,0.122978678601753,-0.633994746901452,0.987801707162414,0.251648965363844,-0.0444320648615071,-0.0616122509587871,0.911181673727398,-1.46648130097158,2.62762019661304
35,35,0.12584744223766,-0.635084697480002,0.987434278486179,0.256910597033311,-0.0345861894452735,-0.0267279144233415,0.979795841367149,-0.98770644126606,3.67647217941704
36,36,0.128867657843011,-0.635225841704705,0.987319258641698,0.273931188756417,-0.0296469667564637,0.00567917868211362,1.01782177622891,0.412103489214805,4.21135612993606
37,37,0.131986771891107,-0.634123029183294,0.98753729881027,0.304392591974483,-0.0159674613969111,0.0378933687478325,1.89332650672459,1.30312025139493,4.26924764035978
38,38,0.135221478997472,-0.632101321747833,0.988056068483092,0.343475550540382,0.0157595424569024,0.0718264720865332,2.90140771007144,1.91635244534997,4.52417812667565
39,39,0.138652009044333,-0.629605934332089,0.988749424030175,0.390341600154737,0.0536239317746483,0.103660510780774,2.0674822553813,0.520936316459,3.13037954753535
40,40,0.142358471095677,-0.62708042159758,0.989491088304191,0.434858117303204,0.0842709927311577,0.128495625935665,1.01855271506907,0.0868053624861894,0.839779789966591
41,41,0.146420828620622,-0.624966769093579,0.990155107886621,0.45671989340176,0.101179707868804,0.140706529343728,2.16582585133825,-0.198156359364007,0.907533720899632
42,42,0.151022412207534,-0.623279894502049,0.990792194232051,0.468958772242956,0.101318077308165,0.139841783017333,0.902009782477392,-0.711662101423523,0.171269997591362
43,43,0.156110784119371,-0.621722789579343,0.991486578911234,0.479300404413913,0.0899357576837123,0.129716515689075,0.137112882069265,-1.22056435627887,-0.722583501847743
44,44,0.16141182858152,-0.620268834338839,0.992163639770802,0.483991687404471,0.0754066432794839,0.113772434840827,0.711094376040608,-1.7494966403174,-0.81696878643736
45,45,0.166651265005635,-0.618892099154415,0.992748957218345,0.486090400008924,0.0614988524768006,0.0959578329760115,1.22629555908802,-1.9447490989835,-1.05826886687645
46,46,0.171554773739665,-0.617567540867872,0.993167665988452,0.489838999671602,0.0528879054639963,0.0792437584889192,1.53606384662662,-1.67187930373434,-1.45288019760321
47,47,0.175943754664409,-0.616297613283676,0.993427011410574,0.492641441892969,0.0520472952964514,0.061929938042971,1.91086731016393,-1.03879063043235,-1.47158394494665
48,48,0.180001171184765,-0.615099250883599,0.993581156704082,0.492567983226537,0.0541621312773387,0.0412502265545525,2.11628344589743,-0.45606156724691,-1.55451796294733
49,49,0.183994987525849,-0.613970089869613,0.993623646198628,0.494921389607988,0.0576303205340902,0.0190175169637002,1.91983674621197,0.0150595593071044,-1.75926006789542
50,50,0.188193149947696,-0.612907723487919,0.993546241992021,0.501690999909077,0.060890700598612,-0.0030530924858742,1.60675330904726,0.352023026134686,-1.92460818632295
51,51,0.192863664958901,-0.611909313082474,0.993338907369784,0.515488175275564,0.0640859726827316,-0.0232770569500275,1.38282234702781,0.422393145869047,-1.90974251262383
52,52,0.198015990110169,-0.611021271392469,0.992978575565192,0.535434640055197,0.0677775179395455,-0.0415090235027943,1.26265726962794,0.49932180011194,-1.86698331845937
53,53,0.203470976395128,-0.610246042975384,0.992472874770816,0.557144363103662,0.0737175047297464,-0.0585445716030759,1.73855006047579,0.29255274189382,-1.58913526165009
54,54,0.209213559031198,-0.609513846910992,0.991855449553007,0.580610969594217,0.0799070244696293,-0.0743532223768863,2.10886732806266,0.101409862760563,-1.21383471545348
55,55,0.215228604626785,-0.608754453330058,0.991158452661135,0.605499947068169,0.0854873029952647,-0.0881029945352075,2.22844283217923,-0.0529057876444943,-1.04071636572982
56,56,0.221501128817695,-0.607897331323709,0.990412550078404,0.630108130268796,0.0899668998631696,-0.0994144169406394,2.16645980619344,-0.00409248677042492,-0.892677794242359
57,57,0.228053670441488,-0.606928837721459,0.989588517800145,0.658119532634238,0.0918340344604674,-0.108579867384156,2.14389602047567,0.0870252809928511,-0.649670935390055
58,58,0.234894905123185,-0.605894382027998,0.988664614416735,0.691317500609786,0.0927182416286312,-0.116362987869706,2.04198018142507,0.134748264434644,-0.491867500467028
59,59,0.241990212547956,-0.60481292886165,0.987680338532116,0.726891729837989,0.0923499010244594,-0.122594490303958,1.98573330907153,0.239131507834484,-0.493452780243816
60,60,0.249306435993151,-0.603704886338482,0.986673480974211,0.759251847335425,0.0905327873299618,-0.127480932633745,2.02670970317792,0.461199108759854,-0.364828810698661
61,61,0.256811832440863,-0.60259178867131,0.985680568812531,0.785510066934217,0.0881585801755868,-0.130651273139805,2.31035230503823,0.568565851825553,-0.126720757828914
62,62,0.264562236388452,-0.601512253664318,0.984696011973199,0.804179929000325,0.0860307459190072,-0.132277355860495,2.67853433711933,0.716996478953379,0.145497180316715
63,63,0.272580770756975,-0.600452817439782,0.983692128967189,0.817156427277199,0.086549227673527,-0.132304169261307,2.71384311246935,0.698027744481879,0.0994376434210669
64,64,0.280787600573172,-0.599357535725076,0.982671549935304,0.825782204937366,0.0898416354798441,-0.131108993903118,2.59452984829545,0.622846193189539,-0.101906768757853
65,65,0.289102982986884,-0.598170672861157,0.981636885082178,0.834586350436793,0.0934094427536589,-0.128781801450984,2.34657795365906,0.581445809574249,-0.314127317944227
66,66,0.297447045058997,-0.596836666947717,0.980591091090089,0.845036603389146,0.0972481041624628,-0.125382415343122,2.36398140929763,0.487685344446487,-0.146781768220644
67,67,0.305751371305728,-0.595325210441103,0.979448194855217,0.857550114652077,0.103540394253736,-0.122253418456055,2.43495022866771,0.204496785554451,-0.0854391208637408
68,68,0.314068865167303,-0.593672812256687,0.978207795767376,0.869063986207229,0.112473112925481,-0.119455070966201,2.74497295997171,-0.0694375585083892,-0.0132007657151366
69,69,0.32250144708099,-0.591924594400367,0.977001195884071,0.879157187240829,0.12081860917524,-0.114967416754401,3.10637790865051,-0.214310914419514,0.0364489751816038
70,70,0.331152033938851,-0.590126473662049,0.97595761367718,0.888657419403305,0.128703533624494,-0.106198273872758,3.44959663010444,-0.589840936730647,0.186328207798176
71,71,0.34012489457269,-0.588325328351405,0.975203548121441,0.899272329747259,0.13817331209715,-0.0912998292259265,4.01162055586096,-0.962216986757619,0.64275345412415
72,72,0.349461897129212,-0.586535032175383,0.974707308099601,0.913510814295953,0.150718417532253,-0.0671411179798882,4.11925833305295,-1.1855467173084,1.74407823230969
73,73,0.359093673508302,-0.584724561568418,0.974384608781374,0.933374744949804,0.162371373177985,-0.0333805110717416,4.33831051514055,-1.03379525918116,2.62983095179535
74,74,0.368958458606604,-0.582874089222725,0.974281024188192,0.954220916665215,0.171287640289532,0.00280552503805983,4.02255883970776,-0.813549454263386,3.01205752197478
75,75,0.378994489451435,-0.580963862884334,0.9744418467483,0.975839075984791,0.175179785251316,0.0343646445569477,3.63109238552582,-0.288184212966704,3.16417879737368
76,76,0.389140033995808,-0.578974433358613,0.974912277488354,1.00114055693815,0.170549124130501,0.0585685383823223,2.98418288667936,0.481161162087999,2.67970595656533
77,77,0.399345170915957,-0.576766152333746,0.975823367547417,1.03708087279062,0.155167252177028,0.0782497271882249,2.66845806835466,0.54507140999082,2.03669206943549
78,78,0.409651031681387,-0.574352892636985,0.97714593200895,1.0784811662325,0.135138340120759,0.0950892798411989,2.28303255294563,0.565123559633706,1.78260063375405
79,79,0.420132655784459,-0.571945649002255,0.978685335675479,1.11860834871624,0.114860984946601,0.107751310362018,2.24196839480066,0.676539348680399,1.36148332126143
80,80,0.430865310667229,-0.569754936790417,0.980247544472048,1.15112592172166,0.101941541141771,0.115636014335727,2.36258696281137,0.557912449167026,1.08221385708928
81,81,0.441924573856567,-0.567990649996775,0.981639496449666,1.17477820330518,0.098067616963434,0.120409744774601,2.15842131637832,0.490389627228614,0.904003015916574
82,82,0.453470406990023,-0.566885332306786,0.982862075981138,1.1897166590612,0.0877841977322218,0.125382455068301,1.25738305244556,0.948837299739497,0.713187162041873
83,83,0.465453655933442,-0.566299281299335,0.984051869200071,1.21026469783032,0.0790220793675471,0.12313150215205,0.730519206120474,0.866494829215916,0.250845447197644
84,84,0.477636594157646,-0.565883133593083,0.985219028081048,1.22715055361303,0.0707444033381376,0.114496475954261,0.761887541172029,0.733780328370943,-0.266346755818755
85,85,0.489781503186957,-0.565287032872479,0.986371001802648,1.22504555913598,0.0662813670177461,0.106832660033379,0.802263746372115,0.48766993426336,-0.14029126173965
86,86,0.501650325861584,-0.564160717604341,0.987512027967733,1.22074420936671,0.0645238523898884,0.0995197802004423,0.478123487821001,0.611592385247065,-0.558254089297473
87,87,0.51321647888386,-0.562391650744012,0.988684754006263,1.21466742017274,0.0752237269233097,0.0884631353593955,0.0241082371603589,0.698823679151151,-0.748287848942219
88,88,0.524639917848581,-0.560212940745522,0.98989299889464,1.19596650068737,0.106641987933499,0.0740906078697652,-0.433737746197869,0.494798606979947,-1.07065829628808
89,89,0.535960874695655,-0.557792500127471,0.991077121040141,1.17032666688519,0.140067820608067,0.058867291948936,-0.585348887578333,0.584034314613611,-1.16195356093502
90,90,0.547218358921163,-0.55529812705918,0.992172931081277,1.14437322644622,0.168110880203752,0.0457336480342884,-0.845483737274462,0.22108537544511,-1.26650125130411
91,91,0.558450306975452,-0.552897845330855,0.993111950356779,1.12620745315686,0.183763891118544,0.0381252734852379,-1.18214853145756,-0.390085664015061,-1.18136990319353
92,92,0.569560099159306,-0.55050397871595,0.993854938727793,1.11040734261998,0.184373348599037,0.0375094128157166,-0.921126551655734,-0.417149488010607,-0.473935873714106
93,93,0.580519999970176,-0.548006390917551,0.994446258402428,1.08924227774095,0.18373707472391,0.0440441522479484,-0.304484715923889,-0.873181816605218,0.070785114322541
94,94,0.591470637508873,-0.545539670130733,0.994939993319211,1.0678658755791,0.177794378767483,0.053346532567013,-0.0176176220836922,-0.66661520996104,0.27269965129519
95,95,0.602552757128532,-0.543237514800475,0.995389882957899,1.05486982436201,0.163828808681376,0.0621137794491985,-0.259307212777945,-0.377622378259721,0.299405971865774
96,96,0.613907430555765,-0.541232150273358,0.995849191734786,1.05431828777188,0.14783943338488,0.0672170762175347,-0.231274615404081,0.0879798910066388,0.722064956937878
97,97,0.625630838578531,-0.539603115291449,0.99634317716275,1.0715066937485,0.133326623051437,0.0706690926376775,-0.475656878481677,0.233510247088692,0.773956548819028
98,98,0.637628438758002,-0.538261763094091,0.996838277166556,1.10215001950922,0.119566341053686,0.0751543106824493,-0.66007497124753,0.32298298028943,0.577268532442472
99,99,0.649756156484225,-0.537087411348853,0.997297887512188,1.13643759441189,0.105771804678202,0.0782582893413269,-0.757190760837308,0.516933275868446,0.0972921207855511
100,100,0.661870669359904,-0.535960501107329,0.997683758350831,1.1639293544527,0.0937863951900983,0.0775971627972959,-0.832129150822688,0.627212923831466,-0.623580695594969
101,101,0.673829385087203,-0.53476259103055,0.997956009524801,1.17578130391867,0.0861947806809841,0.0716259805964847,-0.789442349491205,0.570760797512518,-1.28134917057531
102,102,0.685678713533535,-0.533495648704743,0.998130912870479,1.16760584837155,0.0883300886430198,0.0591872994159115,-1.00548313028769,0.316831907144971,-1.79192722360738
103,103,0.697517348396736,-0.532240629884569,0.998236378724555,1.14492329132265,0.0958534221996875,0.0413031619308048,-0.77310370816871,0.248415977505521,-1.94959674535468
104,104,0.709281628432875,-0.530997098844677,0.998248319378905,1.11541172483464,0.105017314401106,0.02058272678141,-0.202804572954735,0.293485004735266,-1.93281360344562
105,105,0.720907743198693,-0.529762929146008,0.998141963831814,1.0865806257308,0.113160631567738,-0.000191743870723119,0.271939016684039,0.596996098295257,-2.04565843885745
106,106,0.732331614185598,-0.528534318881342,0.997891878208428,1.06694840394551,0.118042038486195,-0.0188926228281458,0.606397785610553,0.451231433694351,-1.95048039010156
107,107,0.743383745443565,-0.527369863237285,0.997490776275343,1.05835679125341,0.116463835173199,-0.0364721688676607,0.46992962368778,0.381085692852343,-1.95274043844918
108,108,0.754110124257526,-0.52626935477339,0.996960526046728,1.05566993845951,0.108740915559389,-0.0549491129504072,0.342510267023943,0.319217126098193,-2.00076456220266
109,109,0.764769174509953,-0.525138851432387,0.996317051094938,1.05848873745343,0.0978065669251163,-0.0728616385874638,0.270332143497691,0.482256317832036,-1.93719340410821
110,110,0.77561881067981,-0.523883842553614,0.995573838062005,1.06884346536455,0.0910993537460746,-0.0890913452686468,0.180778001840788,-0.0593601562008984,-1.70969202704016
111,111,0.786916518273253,-0.52240987229475,0.994742075565632,1.08712144918924,0.0886352050985806,-0.102026432285524,-0.0879787424757982,-0.0589318024325119,-1.61408105418584
112,112,0.798667149616922,-0.520717208299523,0.993787451817562,1.11422994447146,0.0898271694904559,-0.110073413144306,0.104568018489631,0.233733056067477,-1.01177566711119
113,113,0.8106991541628,-0.518866726456039,0.992709512976359,1.15289547524587,0.0938198403660442,-0.11432612221659,0.283897271977622,0.583257798071072,-0.80313398429822
114,114,0.823002949487493,-0.516855754594971,0.991563336301405,1.1894945909303,0.0995298582950125,-0.116272480581973,0.406797051212734,0.781495783826863,-0.537695893138262
115,115,0.835567239440851,-0.514681498754998,0.990395848330857,1.21654818036229,0.106238726795745,-0.11879047296988,0.638181441890802,0.831378554802346,-0.155740256563327
116,116,0.848380584738612,-0.512340607468241,0.989245659939587,1.23523873063354,0.114585529657643,-0.123917387371783,0.655601651772158,0.732517379410882,-0.26387435026385
117,117,0.861508405725891,-0.509818168081759,0.988077439576995,1.24634739558467,0.128197326093687,-0.134216853883102,0.839153863326123,0.841524171914933,-0.503934780719315
118,118,0.874953481862794,-0.507116324109419,0.986858255313214,1.25432824275567,0.148716459270028,-0.146804000678084,0.781590685820175,0.7873515964821,-1.02526736329907
119,119,0.888612827288038,-0.504257622811347,0.985621809296058,1.26448441213774,0.17050609337847,-0.157842717656768,0.966928243289456,0.922946736878,-1.16340951845144
120,120,0.902386386001853,-0.501264943230668,0.984397892674679,1.27550349891624,0.189249856142069,-0.164653775539808,1.13816280106189,0.925806755682472,-1.03175319081938
121,121,0.916177023761692,-0.498160941394953,0.983213098426794,1.28284701640872,0.198241073405249,-0.165309735233139,2.17866603977693,1.22777826556024,-0.0578097649699804
122,122,0.92996411504607,-0.494849276724971,0.982071622783145,1.29206764559354,0.193078153708913,-0.156217276254136,3.09426677875625,1.47731305340426,0.940183942883894
123,123,0.943816030933108,-0.491315489844829,0.980945607605676,1.30867795265239,0.179212473899411,-0.136871455705888,3.21435063794981,0.942090653048487,1.48153951652339
124,124,0.957770927860905,-0.487704359927352,0.979812383672439,1.32511125985622,0.162730757076477,-0.1139559367448,2.97854084877938,0.359938019531177,2.08995127108066
125,125,0.971866998799815,-0.484160440045945,0.978649950385643,1.34611146432518,0.155270670937933,-0.0892210692121274,3.31674345260314,-0.179334992416917,1.70988916082936
126,126,0.986142292285694,-0.480828291836277,0.977437311396106,1.36874643964501,0.162356403882688,-0.067687428960699,3.64916253877629,-0.525298890232872,0.748744066115875
127,127,1.00083148749384,-0.47763155794133,0.976014816144483,1.39330762114585,0.170835718230282,-0.0498692290333904,3.30177783659612,0.391482720458325,0.476785955052982
128,128,1.01591046265395,-0.474473497531214,0.974397600003302,1.41514311556345,0.178646099751718,-0.0342441809413901,2.8802407234227,1.34012683877361,1.0050296412607
129,129,1.03102779254535,-0.471467740641311,0.97282784671104,1.42712745469179,0.184957879616163,-0.0206944221820086,1.55566743399876,1.29578683016626,1.92736955688146
130,130,1.04583171205611,-0.468726939189216,0.971546135150255,1.4633432507604,0.194835049264779,0.00435334456497232,1.37298994747336,0.565151559729662,2.44048911794814
131,131,1.05997067884598,-0.466362886556714,0.970790552159774,1.48256243617368,0.198656480911835,0.0230408568622208,0.3945516682792,-0.0208963999588625,2.43667539402935
132,132,1.0731958392855,-0.464403759973088,0.970638425404711,1.48461345510764,0.192811537959662,0.037206662140653,0.33967663404151,0.36712654860812,2.66458683194054
133,133,1.08573855724417,-0.462771925866611,0.970935997953793,1.47640988285355,0.16506974704752,0.0503295037671514,0.979927655173405,1.47196416113771,3.35521698279682
134,134,1.09796970695243,-0.461421823989367,0.971571957642188,1.46150336706913,0.139142280313538,0.0662716014310337,1.28282297038786,1.62686376467311,2.51033742819754
135,135,1.11026279833483,-0.460309825085723,0.972432860707728,1.4462748769431,0.13999210209202,0.0830347924504223,-0.0669249858116381,0.483879573865523,2.16363297982798
136,136,1.12299355143308,-0.459394261045608,0.973402792645457,1.44501908856538,0.135525366398024,0.0978254559760827,-2.43390631146216,-0.520166372806068,1.1193725759665
137,137,1.13628053164757,-0.458911273665304,0.974547145451876,1.44117975826233,0.110087688377542,0.105859059706865,-4.0506722354375,-1.06082687046928,0.758612794649144
138,138,1.14987635192128,-0.458890863800782,0.975947110245554,1.41498452275479,0.0889280733762709,0.102913725781291,-3.01675970013956,-1.77023418915618,1.44279344305623
139,139,1.16360805983643,-0.458983831909747,0.977507522881311,1.3874083862621,0.0672310518230401,0.0937921472645584,-3.59870562199294,-1.97368568120338,0.266109324013403
140,140,1.1773011242116,-0.458840907693569,0.979131398930515,1.35943941260631,0.0259578346783446,0.0860754004998088,-3.5384685018474,-0.89658883835252,-0.0868381514056099
141,141,1.19077941792723,-0.458112532496867,0.980720192703542,1.33153415021569,-0.00947477311708802,0.0836974890631815,-3.09253466452259,-0.359897248619779,0.38790607683538
142,142,1.20404109692172,-0.456698015038741,0.982266650229856,1.30417997124315,0.00102040215873013,0.090331642264787,-2.81358129687297,-1.02608993515235,0.593230698596705
143,143,1.21720167408378,-0.454831837269904,0.983842534148502,1.27519521570165,0.0409123734459085,0.101111974824824,-2.66687381970201,-0.971282973545248,-0.101230531238328
144,144,1.23025980183751,-0.452666167120747,0.985463534283402,1.24801329132067,0.0786418483901712,0.111899360775496,-2.12249105217225,-0.183336956372971,0.229028540246581
145,145,1.24321387905143,-0.450352612662226,0.987139694666147,1.22718813982277,0.112529882974794,0.120586816344562,-1.87584999673084,-0.122166337740612,0.496684164053437
146,146,1.25606246172188,-0.448042821724843,0.988875360348656,1.20825874635686,0.141315223967504,0.127188322955963,-1.13718175563839,-0.191632610406508,0.72401275290126
147,147,1.26877899033568,-0.445684163479925,0.990754556835929,1.1946148008364,0.158658463340861,0.135987098100287,0.296586811489892,-0.11236264634365,1.84943614805798
148,148,1.28136369375397,-0.443176093716713,0.992771515045052,1.19818618874847,0.162048851135348,0.150379788763214,-0.589953681925842,-0.249601923806157,1.52762345489799
149,149,1.29385633192266,-0.440598562277712,0.994792042318285,1.21324899026878,0.15742019089743,0.164945313854674,-1.59098022605886,-0.619062326214883,0.582987056498578
150,150,1.30629718535915,-0.438030632255388,0.996681379615166,1.22888667053273,0.149568925675626,0.174543958934561,-1.76287756165803,-0.884944433318997,-0.387569219798738
151,151,1.31872683016829,-0.435550004989795,0.998303943882228,1.23518150005185,0.141401491810881,0.173548447140236,-1.35903737216064,-1.23494485433732,-1.48855288456486
152,152,1.33125060084591,-0.43311418156174,0.999648878589502,1.23095433526749,0.131300681207768,0.158433757758008,-0.996338237789857,-1.50749622542872,-2.37612473046375
153,153,1.34384468063526,-0.430669837528563,1.00080622997331,1.21918595234571,0.122004821015594,0.132398593010468,-0.278704428112443,-1.72930898066619,-2.51506691173825
154,154,1.35635572119748,-0.428276764566382,1.00179103114352,1.20356375751237,0.112169082398872,0.101793518952329,-0.0429671695268691,-1.73836324907294,-2.90670622484184
155,155,1.36863002380674,-0.425994426937333,1.00261811754283,1.18720725561354,0.104512103535502,0.0730540966705436,0.374636418773352,-1.54921168326644,-2.84342768474285
156,156,1.38051354782165,-0.42388214766457,1.00330195799292,1.16982898126024,0.104628129136427,0.0507368569630172,0.767933815695248,-1.37642365603416,-2.47458230018874
157,157,1.39178650217461,-0.422002504442252,1.00383853868282,1.1490076345518,0.112222963645381,0.0357684457244233,0.616108660924773,-0.996297455903337,-2.13514962043835
158,158,1.40255366366334,-0.420310658858002,1.0042206658619,1.12139962846586,0.126135390178633,0.0239506246657877,0.343097987908367,-0.566859651960556,-1.78035902398831
159,159,1.41314837012308,-0.418707873815113,1.00445703630077,1.0934288134493,0.141493388856393,0.013538343168894,0.104195508170142,0.153579243774439,-1.16875252429355
160,160,1.42390500251977,-0.417099801778391,1.00455595877983,1.07495796664793,0.153128608204561,0.00318276404718646,-0.265408229997048,0.649729056426506,-0.942490934179184
161,161,1.43515887328994,-0.415396433993407,1.00452560854494,1.07401616278278,0.15780905414541,-0.00774968710591884,-0.396476874812199,0.913402463838871,-0.655983056887133
162,162,1.44693155058812,-0.413567605856632,1.00432822951589,1.09751447273204,0.157266586036905,-0.0177161805283317,-0.915437137744921,0.957642467953045,-1.1383454012752
163,163,1.45900324018357,-0.411680591368489,1.00396462167427,1.13601962100458,0.155528130328473,-0.0266918228152986,-0.701127586222673,0.652955381051436,-1.20716795969591
164,164,1.47134575767301,-0.409792541815356,1.00349893903996,1.17880619763038,0.153127019294436,-0.0354119797925169,-0.301006378161847,0.319761733784046,-1.1844392597663
165,165,1.48392861218984,-0.40795754681198,1.00299246906195,1.21777209448101,0.150992397586555,-0.0442219449639227,0.0819340963530672,-0.122221527780518,-1.00654255431311
166,166,1.49671958113716,-0.406226491749514,1.00250320796827,1.24717297232374,0.148098361745663,-0.0535636952591066,0.144332993652203,-0.372998251619639,-0.79681626890712
167,167,1.50977505616133,-0.404632968997159,1.00204498687867,1.26618937338436,0.144722485551668,-0.0638108055911398,0.224397226787308,-0.69007484332302,-0.7286696520408
168,168,1.52311133269827,-0.403142453641212,1.00158467476457,1.27863592645751,0.141576925906364,-0.0750355018830715,0.343479208657904,-0.88672172609875,-0.546571860563562
169,169,1.53663513326556,-0.401701215048208,1.00110135241556,1.28755220722232,0.138098433096052,-0.0866671783794798,0.406963930407335,-0.76404950358876,-0.751675835532956
170,170,1.55025459416889,-0.400255349943371,1.00056568230735,1.29399658614465,0.131555495284338,-0.0977734401428375,0.412076893251683,-0.462481172463157,-0.918293519444896
171,171,1.56388049474649,-0.398750796178175,0.999940413430094,1.30331698560418,0.121024028547236,-0.106931798239643,0.647722157967101,-0.0675765291194673,-1.39870080984707
172,172,1.57754186545243,-0.397133847317489,0.999195944298214,1.31364354319851,0.107296734020518,-0.115348138875922,0.934804369028735,0.163750049491382,-1.66546352509258
173,173,1.59129632491051,-0.395438419742898,0.998348295912231,1.32251824475299,0.0951527710363643,-0.124540773973424,1.17441513647266,0.228689508945928,-1.52648929375342
174,174,1.60510285589175,-0.393743135452526,0.997418281003839,1.32795276618302,0.0907293307486913,-0.134090036351221,1.47008082086187,-0.35613030142232,-0.874242372241407
175,175,1.61892466949074,-0.392128383993872,0.996420719094015,1.32986012541263,0.0913004779725504,-0.143800441439182,1.66722066649635,-0.907844857944492,-0.196759817599387
176,176,1.63272804303112,-0.390675742399525,0.995367405916967,1.33351976403573,0.102182685092498,-0.149772575045604,1.56867712880391,-1.08878946420467,-0.151371216096705
177,177,1.64647662687278,-0.38948560553856,0.994242364197614,1.33838118437234,0.113135443301976,-0.151374482662494,1.28815977198475,-0.196254274453722,-0.0897589098854431
178,178,1.66019778428837,-0.388503363868206,0.993029704537592,1.34393684925874,0.117604981762975,-0.149392892493058,1.45426468087314,1.03959890712549,-0.387661481142791
179,179,1.67395240532125,-0.38757837013283,0.991744264738013,1.34730027691252,0.116855423182978,-0.14517000647941,1.94163545717657,1.40483858940968,-0.560832239331329
180,180,1.68780171005496,-0.386561264227324,0.990399696263469,1.34580682340523,0.112225786253368,-0.1390390016946,2.8733856610732,1.72125667161309,-0.0488682619853365
181,181,1.70180886270068,-0.385304436925582,0.989005613323035,1.35097987912128,0.110290304628333,-0.13061315894213,3.13370295419348,1.48051262434896,0.419359632453462
182,182,1.71621704745039,-0.383921535065191,0.987442841219628,1.37598398245312,0.106629200918214,-0.115571263751959,2.53599607057953,1.19420915176579,0.785777276812917
183,183,1.73098368826306,-0.382512133612417,0.985708265376125,1.41553172474553,0.105265581983402,-0.094206119356881,2.29527503741383,0.410605731727217,1.22984241597999
184,184,1.74574508944659,-0.380908951777665,0.983981730036259,1.45320427822605,0.112201179557034,-0.0726796857033178,2.38025572211543,-0.243602945469235,1.6968856727741
185,185,1.76013807847836,-0.378944995012419,0.982441709221561,1.47910384959799,0.13169630781473,-0.0543064016308338,2.20693976098081,-0.861943418940207,1.98056459125861
186,186,1.77379985050017,-0.376453172109204,0.981265009815286,1.48560218492783,0.161986434254103,-0.0390699783322172,1.86400824678443,-1.9034247513751,2.43207865441647
187,187,1.78646589750724,-0.373311534237312,0.98043685780031,1.47422502401717,0.191860115856013,-0.0226992699486519,1.9177793843597,-2.38119812267262,2.6257023338437
188,188,1.79837782348942,-0.369633708383302,0.979841110412564,1.45246294759586,0.211886159990662,-0.00366080531601768,1.30872373759222,-1.55375298897571,3.12455250323003
189,189,1.80993276007079,-0.365603758386075,0.979500923145079,1.42434198758225,0.24389151805178,0.0154312325490201,-0.682561355489398,-1.41912883082254,3.15712431903994
190,190,1.82152888268077,-0.3614037454966,0.979439540108167,1.40576844504559,0.29059717707041,0.0311846041256088,-2.81195223207714,-0.7076178004573,2.01702847938189
191,191,1.83356507296413,-0.357214480304292,0.979680910303434,1.38248152220277,0.344397703822577,0.0398903066637795,-2.92353266953091,-0.415863745291053,2.02856651494227
192,192,1.84612053740234,-0.352781407035692,0.980336664966854,1.36256230212114,0.377619238377491,0.0363876115704488,-3.56679827193948,0.244515494286909,1.23706726267032
193,193,1.85893075202673,-0.347982506934452,0.981398497168769,1.34284223345808,0.388019769139295,0.0236075401055802,-3.43293207402688,1.51259503025489,0.0384000664671678
194,194,1.87187777143977,-0.343196944370477,0.982708858360164,1.31419568613093,0.404840680864584,0.00950644082991018,-2.94814415980878,0.710503900840673,-0.849429166711353
195,195,1.88484186829398,-0.338803534528112,0.984106050839618,1.28212842915997,0.414504866974836,0.00180263447149978,-2.79751100513795,0.621345966945972,-0.578859838572309
196,196,1.89770194257177,-0.335180394661228,0.985423855573459,1.26089439159894,0.394332791952346,0.00966776781558611,-2.2209945375513,0.60890976181286,0.00825245531020928
197,197,1.91036621878319,-0.332480405606049,0.986658882940334,1.2533307722278,0.349850934873814,0.0393309883040928,-1.74038674509465,0.158127808151899,1.13261902459167
198,198,1.92291213722729,-0.330450665366781,0.987925216949322,1.25404184791908,0.290281102830023,0.084821493785628,-0.930104085660884,-0.0514197918866628,2.31758392661624
199,199,1.93547245110074,-0.328861336045941,0.989227208983283,1.25618894781986,0.220866551045508,0.134100387877999,-0.089552325606025,0.475562596166622,3.79961208332141
200,200,1.94818043553895,-0.327483820248969,0.99056565747816,1.2596344456223,0.155037351739873,0.176153388193167,-0.160942592020199,0.583837345725371,4.19657790363623
201,201,1.96116998262788,-0.326089870353743,0.991937844675066,1.26601763733603,0.115474991555994,0.201005231815945,-0.853582274160595,0.108035790812005,3.14761483422157
202,202,1.9746067425779,-0.324773551720229,0.993437513524967,1.27763256610249,0.105997746027966,0.207288408692406,-1.22027604380757,-0.219642030109006,1.44136185803897
203,203,1.98840229029855,-0.32368690762829,0.995064822747067,1.2918780667913,0.113587651207723,0.201557097147066,-0.60114468477886,-0.128281683629055,0.48190054595337
204,204,2.00231057580334,-0.322689320366921,0.996674176200841,1.30621206720273,0.131740275809868,0.187458190368956,-0.570621065121107,-0.0886101387295011,-0.916567145466302
205,205,2.01608606670511,-0.32164208619977,0.998119450851604,1.31733306997713,0.152791561487854,0.168674110194221,-1.21403158469125,0.0468092662999015,-2.50456468415459
206,206,2.0294835798022,-0.320408910388799,0.999253748272393,1.31976066022254,0.162975441647638,0.148124975238189,-2.14478746171601,0.612286773720711,-3.64422209644045
207,207,2.04249989588208,-0.318948960611117,1.00005321348458,1.30827701215503,0.158602497324552,0.122579230278992,-1.96433691148832,1.06752978324722,-3.25028381911932
208,208,2.05530208563699,-0.317357064934275,1.00061648036986,1.2853862450667,0.148949151962153,0.08917476976363,-1.36206929846088,1.1143786596186,-3.23416481602912
209,209,2.06790049520938,-0.315700763595355,1.00097918348629,1.25498469579605,0.13576643127549,0.0524626308728716,-0.241548209288367,0.836805562357147,-3.27262593420502
210,210,2.08030537523963,-0.314045607769402,1.00117626447948,1.22327055049814,0.120041092219991,0.0166983790203127,0.59952688002872,0.485337394309535,-3.07821004571183
211,211,2.09252685840076,-0.312455504905488,1.00124202457082,1.19919430352002,0.104895528487245,-0.0127962684494204,0.762603153072212,0.178833032769038,-2.77639642409948
212,212,2.10441772679815,-0.311005097943443,1.00116500577682,1.18456532700872,0.0909694304883293,-0.0352248450293923,0.411239190569002,0.209727458485179,-2.33984899367235
213,213,2.11597448741033,-0.309653960264205,1.00092483208872,1.1756245094176,0.0796883345808141,-0.0538523534805886,-0.110508387179183,-0.290111029064538,-2.12833376483905
214,214,2.12742204719525,-0.308289531009469,1.00054154695659,1.17204242137924,0.0734106099233462,-0.0694686472587418,-0.181069329729314,-0.473086296771146,-1.80639198568888
215,215,2.13898441529121,-0.306795249739654,1.00003461747142,1.17588082595463,0.0723143561425312,-0.0830011449161177,-0.438603887586718,-0.38054854603634,-1.72633062640275
216,216,2.15088481325465,-0.305050647367397,0.99942279993052,1.18481229836485,0.076306639410446,-0.0954419589783617,-0.440745374302568,-0.136589201288274,-1.37048330187813
217,217,2.1631470867416,-0.303010417164317,0.998666165740881,1.19856330316063,0.0876885570191268,-0.105793289467515,-0.384092056354604,0.228604917428122,-1.23137332034665
218,218,2.17562230654099,-0.300749833186149,0.9977588222367,1.21541477875522,0.103523789867253,-0.11319906822402,-0.19372589671499,0.629537047666501,-0.838665305080784
219,219,2.18827195406434,-0.298326203715198,0.996765592990001,1.23099354870326,0.118821232716166,-0.118995760200186,-0.349837784020218,0.785505431661125,-0.746692911331858
220,220,2.20105570273588,-0.295795736267601,0.995744762030228,1.24367938216321,0.13211719583783,-0.125094194583761,-0.143545579034563,0.921780909196614,-0.679792190760496
221,221,2.21393278715168,-0.293213378859472,0.994748058948702,1.2518675883321,0.142604523653518,-0.132318453331949,-0.289996499134421,0.824666491661426,-1.03012649327992
222,222,2.22692340821722,-0.290569840702619,0.993746887394085,1.25257536401514,0.152607864594303,-0.142328716886566,-0.178898264185411,0.348268231215769,-1.12587312669807
223,223,2.24005044230583,-0.287821110796463,0.992700372877898,1.25027040501415,0.16480376182849,-0.15520183873202,-0.202393109487853,0.0542385814245775,-1.44190651648912
224,224,2.25327880693012,-0.284973474352123,0.991636121924052,1.24712684706122,0.174666457867047,-0.168467848401816,0.58404678524843,0.169683180359656,-1.19667956818123
225,225,2.26657522006994,-0.282038068521003,0.990579853150888,1.24953381343577,0.178507491170373,-0.177698076397572,1.34180131587351,0.455683486035462,-0.746049003815085
226,226,2.27990839094352,-0.279029961154213,0.989555783811081,1.25648128262755,0.180392819964665,-0.179790923653671,2.07745900755541,0.555869796083204,-0.0771654716803111
227,227,2.29325375962273,-0.275915555447885,0.988546823117319,1.26359385756704,0.195380768109656,-0.172679496641019,2.46628250323255,0.406723866267369,0.457586099886744
228,228,2.30663409809906,-0.272689169881658,0.987530719745144,1.27337464516168,0.216598223722892,-0.157710329558998,2.54710378550766,0.507496534847071,0.462861119663515
229,229,2.32009128199935,-0.269409872387934,0.986521429644171,1.28626772468197,0.222548050415471,-0.140023579930136,2.22920192245615,1.11737005505585,1.20662916566523
230,230,2.33366807938464,-0.266136420315627,0.985531215480619,1.30110656872657,0.223677835323038,-0.121498143285623,2.40000633211551,0.962185737909833,1.72253731673689
231,231,2.34740777451111,-0.262927135283021,0.984571913763476,1.32133827514952,0.226771083949645,-0.102029811752592,3.1966776485906,0.610506708343185,1.64637892119962
232,232,2.36131284830103,-0.25977515184818,0.983644836496256,1.34461831751548,0.228097442726769,-0.0815277653415562,3.46147712563353,0.462449583331972,1.47688413135571
233,233,2.37535697463775,-0.256641754488176,0.982740377285948,1.37384044464964,0.227429664800904,-0.057695508039247,3.00910140972092,0.559867087397028,1.02325376340829
234,234,2.38953913942149,-0.253536585931743,0.981855646061413,1.40319959428161,0.223959147103941,-0.0338458164234511,2.87855218960999,1.09199824747388,1.20750781215922
235,235,2.40385785131904,-0.250469472970779,0.98098707132557,1.43063288454283,0.217519381587572,-0.0109029736888609,2.80063305341152,1.38046953340172,1.88646531448002
236,236,2.41831178414819,-0.247451031287387,0.980129184296685,1.45323588885271,0.208687719510742,0.008549128538088,2.48286864084459,1.25988966076921,3.14086957610686
237,237,2.43304639408292,-0.244312055415962,0.979168003973409,1.47750609246975,0.203507079698038,0.0249778385705517,1.9842187112674,0.840587695498124,3.24834121862176
238,238,2.44806137278484,-0.241043870744759,0.978112857140359,1.51277116726091,0.20278725768033,0.0413037648833487,2.49906015816759,0.668647213085175,2.78052981926888
239,239,2.46313764301101,-0.237899040987653,0.977140401406827,1.52830464119554,0.200694644820357,0.0503969869735991,1.03091494141398,0.67666829431026,1.56059180246319
240,240,2.47805720175182,-0.235130759515696,0.976424662148384,1.53830388971963,0.192753828958471,0.0584943651465711,0.65889575234494,1.06625920294007,0.313149048648142
241,241,2.49260291194709,-0.232992933658881,0.976136748121667,1.53060454241675,0.19484095634357,0.0622124961130673,0.624891857847946,0.57974316079187,-0.284979809066566
242,242,2.50669567607758,-0.231710189946573,0.976354029354603,1.51138900127943,0.1918313839708,0.0601940856447829,-0.714599406667421,-0.13444177636034,-0.335341737870038
243,243,2.52048170450392,-0.231112605329936,0.976965445081776,1.4899206662633,0.166499793186143,0.053511097518585,-2.77231795840489,-0.601265772885756,-0.112645440054628
244,244,2.53408186569616,-0.230864156598154,0.977856171617876,1.46579919066016,0.124860395785203,0.045851816010825,-3.95743069492879,-1.00247568105251,0.388632451770848
245,245,2.54761619426421,-0.230630379587054,0.978909625081731,1.43798081931394,0.0739501138403007,0.0394496878817965,-3.37734212988487,-0.99539637249771,2.22481416680079
246,246,2.56120351975192,-0.230077881553093,0.980007912076949,1.41217127157521,0.0386242306379,0.0382065310792683,-3.15941985823619,-0.847901075034713,2.35075103192114
247,247,2.57484545702143,-0.229289141821488,0.981164611662974,1.38533270805757,0.0255937994694574,0.0451423493157355,-2.76662882390028,-0.784930649784826,1.69702807251363
248,248,2.58846074051587,-0.228487920467664,0.982462978545202,1.35451933679816,0.0254728253603554,0.0584083521088578,-2.81634011812758,-0.740103292755142,1.38681810109245
249,249,2.60204269177532,-0.227552631517066,0.983887176213593,1.32673089800605,0.0324525659443974,0.0783597826251159,-2.71667118144704,-0.49465733509343,1.73514356798881
250,250,2.6155846673804,-0.226361391211799,0.985418010938021,1.30322143773762,0.0444587028946479,0.101181074642578,-2.87012671611108,0.0879350616835206,1.32487135455924
251,251,2.62908042230193,-0.224792487512342,0.987032572099241,1.28876845100511,0.0672202834524594,0.120560531170264,-2.52324407493894,-0.00849880748969915,1.0429098515106
252,252,2.64251556822051,-0.222806309414329,0.988799576459222,1.29239635869349,0.109297670368322,0.139779627290552,-2.93795882118466,-0.360281716852082,-0.0172968921721209
253,253,2.65589248252554,-0.220483328561103,0.99073599047655,1.29456708373868,0.161841782521239,0.160794240844227,-0.140063244668087,0.544960302748977,1.68539064884707
254,254,2.66923113978733,-0.21788229621354,0.992736452087719,1.30019510493169,0.210853769580409,0.180932814261017,0.455988466284579,0.316317421114273,2.17244924066488
255,255,2.68255242300316,-0.215061899872076,0.994692656057105,1.31406364907848,0.246558956644009,0.196556632366083,-0.988724039875465,0.00841556825240978,0.655397770398744
256,256,2.69587831560252,-0.212080867121043,0.996493529524348,1.32266101298774,0.263842368856817,0.201401087898977,-1.05801625084011,-0.579900775754792,-0.136339762802425
257,257,2.7093412124996,-0.208756137341931,0.998201632912212,1.3269567091355,0.25897166815553,0.192539066750662,-1.35326007561782,-0.942629849422484,-1.29535411355419
258,258,2.72293012302926,-0.205047946943559,0.999888864379708,1.32847856606509,0.241329800336229,0.172445082017099,-0.889139578930683,-1.14913021708651,-1.98084610915078
259,259,2.73645245609141,-0.201229573783593,1.001456893856,1.32512977077522,0.219239170795458,0.145511771064941,-0.000887567740572008,-1.5239205690798,-2.27716619105037
260,260,2.74971487301864,-0.197573629776903,1.00280772223551,1.31734275357961,0.200210165736877,0.116805711962622,0.402501727312479,-1.93320835906399,-2.73892693145697
261,261,2.76252314645257,-0.194352030324489,1.00384326737251,1.30431646927275,0.183164436605045,0.0921691358498822,0.458518669339845,-1.92138601287832,-3.44411409358516
262,262,2.77469708010097,-0.191628185929307,1.00451181345738,1.27633913201984,0.172507631071805,0.0693956366306904,1.08597719299986,-1.80693246908908,-3.13765350550207
263,263,2.78636856789385,-0.189217271389024,1.00488121306601,1.23646724348645,0.164873348085316,0.0448349232506988,1.08310501795493,-1.65410324370069,-2.52436778788234
264,264,2.79781116719524,-0.187020517034877,1.00503169826653,1.19861422649897,0.159972571676774,0.0208360560843108,0.285548854550822,-1.48505392275216,-2.63064230118816
265,265,2.80929899064474,-0.184942106789915,1.00504285076829,1.16770185424171,0.158771428069557,-0.00148215112543029,0.0698473123730182,-1.12580707133871,-2.29089830310924
266,266,2.82110669519729,-0.182889113987788,1.00499390125024,1.15225000402696,0.160714306559459,-0.0203680846699091,0.0946066594013153,-0.459830231906968,-1.57724153583683
267,267,2.83315647005004,-0.180906085424079,1.00488877245491,1.16010785055962,0.164691433612331,-0.0333367800134273,-0.206020525502665,0.0791936360109491,-1.22041643421104
268,268,2.84526774354549,-0.17905897286868,1.00467974933048,1.18731482970654,0.169444022548103,-0.0413450914764562,-0.455808044494829,0.412107050265765,-0.990876091403315
269,269,2.85756066930736,-0.177289477308503,1.00436742652108,1.22640843903381,0.174601642655452,-0.0470491516147117,-0.866224908596175,0.691284895269787,-1.18212372606644
270,270,2.87015466846604,-0.175539560023923,1.00395064998467,1.26425977571363,0.179625413069206,-0.0531882967944813,-0.461151507312133,0.623465906054495,-1.02888284065708
271,271,2.883168553494,-0.173751046696423,1.00342624756387,1.29269341371812,0.182879628189773,-0.0624177066106509,-0.0741590216681301,0.6633001148035,-1.0529308114738
272,272,2.89669606308922,-0.171961646212434,1.00278471572067,1.31088536681519,0.183598319573194,-0.0750722937524782,0.494921723310711,0.69501660418705,-0.930408438193687
273,273,2.91065550195452,-0.17021560633463,1.00203610711688,1.32596318483051,0.184367821398041,-0.0892689870605882,0.620283623452868,0.486869235769561,-0.836895485873845
274,274,2.92490093067722,-0.16846153934837,1.00119888634279,1.3397098354569,0.186618182114198,-0.103777425143043,0.390728640274285,0.330730062266543,-1.26457163651659
275,275,2.93928640104308,-0.166644618223387,1.0002824597686,1.35380611059455,0.186731460846712,-0.117701812893864,0.196146057955818,0.120912622022913,-1.54488254967947
276,276,2.95366754663712,-0.164706928233807,0.999287453952396,1.36961436574651,0.182915210449777,-0.130214553965276,-0.136447938501296,-0.0510736769254934,-1.69082189872343
277,277,2.96806985927025,-0.162547081913897,0.99818943975438,1.38411203275241,0.176970230721092,-0.143110918285044,0.245082568933251,-0.0863051771706047,-1.71609397122684
278,278,2.98258640041645,-0.160199532577745,0.996980368276489,1.39236797901404,0.16973643457514,-0.158145674063934,0.833957370048648,-0.163485844472803,-1.44819723369986
279,279,2.99717870296691,-0.15780897527343,0.995673670658766,1.39731352792106,0.162420935779914,-0.173624221934565,1.03144065510862,-0.341416532471575,-1.17428867550017
280,280,3.01181234622816,-0.15552122003425,0.994275598324668,1.40243975361824,0.158176459447277,-0.187228166423004,0.978144279071541,-0.883458261257922,-0.895110176732977
281,281,3.02645627224204,-0.153483053397511,0.992788236873803,1.40903857114328,0.15602562406928,-0.197562557129779,1.25667839648952,-1.13381238440987,-0.870248176491701
282,282,3.04114772335407,-0.151810802221311,0.991144848169378,1.41238723699194,0.166777491934747,-0.204747894426344,1.74558976667095,-1.0704239834973,-0.684065324279156
283,283,3.05591313727531,-0.150406478138578,0.989333141341351,1.41397263323226,0.187315298269789,-0.209802531700394,1.58572394734869,0.0480476565367906,-0.274304534528362
284,284,3.07070481201475,-0.149096030220498,0.987439570054463,1.42057327897862,0.1903617205443,-0.209117401531895,1.72238585257779,2.02554932698748,-0.565136850781015
285,285,3.08547413112016,-0.147705004574129,0.98555085851957,1.42497601807114,0.176295777138555,-0.203166216949566,2.37248402747842,3.05915212915436,-0.441082822190768
286,286,3.10017273909225,-0.146058260748955,0.983751390710885,1.42568490490976,0.16795214265026,-0.191602714072272,2.8651356544279,2.25580403950101,0.105470025927554
287,287,3.11495229727934,-0.144299118225997,0.981907947502894,1.43382410368525,0.165857640990459,-0.168653682061046,2.9888247389933,0.801850193453461,1.0612726473561
288,288,3.12984343753507,-0.142543858609132,0.979967624445408,1.45204561355475,0.164005938199517,-0.131347855686678,2.82639744606963,0.0161328379589862,1.92793255798356
289,289,3.14461732748403,-0.140577273602331,0.978132446560034,1.46832189225509,0.168557822409371,-0.0883895771130287,2.6543681038014,-0.439034048964306,2.39592641818788
290,290,3.15904648116204,-0.138185366457065,0.976603233988794,1.46993879886055,0.187848724530984,-0.0480425501274659,2.75323699651744,-1.11855717454832,3.74799764031408
291,291,3.17290484245599,-0.135155020692798,0.975579348307592,1.46595791896614,0.22147470272335,-0.016602092201868,2.66372544760742,-1.31868804908134,5.12314141697777
292,292,3.18594846429221,-0.131285639069055,0.975119128850395,1.46128705331482,0.260403058144154,0.0154089730733436,1.89701784922584,-1.80790274018883,4.8307896981767
293,293,3.19832911006719,-0.126722022967392,0.975092869128408,1.45624587070071,0.288326102190115,0.0497308636404417,1.45708515047287,-0.730971232217654,4.37314663275344
294,294,3.21041536205775,-0.121767996345428,0.975416349051266,1.4428900519392,0.322283935103928,0.0809134303613092,0.715963913027576,-0.477024221574858,4.82423711310304
295,295,3.22257596885153,-0.116725714848166,0.976005247577272,1.43549367930405,0.372147547086382,0.108926959065921,-0.937367187279206,-0.00989801391841259,3.74448556646291
296,296,3.23517930224528,-0.111896206155347,0.976775370743994,1.4304705919255,0.429510078499385,0.123877195332095,-3.01692391517536,0.111268121259901,1.96343581316781
297,297,3.24830643802215,-0.107091414124217,0.977828408328772,1.4186444842136,0.446986620963913,0.11776579644712,-3.46026903869223,0.0753857618969632,1.04711275680594
298,298,3.26171259034445,-0.102110807188029,0.97922954361947,1.40976429945545,0.421359942025143,0.0965616545579143,-4.0434143715907,1.64942175422706,-1.3232770115719
299,299,3.27527538488461,-0.0972352018891114,0.980836311612986,1.3849297241124,0.416959822346127,0.0683403748787998,-3.56353131537678,-0.0230210815315804,-2.01464131029896
300,300,3.28887082147131,-0.0927437284440854,0.982500626673052,1.34980427022771,0.4170708749071,0.0453438470621966,-2.6708499107015,-0.797113199756461,-0.765365806372237
301,301,3.30237362301299,-0.088913848348548,0.984068794010195,1.33290849722253,0.390953177184234,0.0400174826753433,-2.82703695370894,-0.411972554777735,-0.272866378034972
302,302,3.31571805446508,-0.0859054211891033,0.985555033175165,1.33067796851868,0.344249966219723,0.0581645327119112,-2.59395994553215,-0.451368686584514,0.408306631948583
303,303,3.32898398255625,-0.0835310723326765,0.987063955297332,1.33111334898141,0.295565701605087,0.0911054427687757,-1.50403771013917,-0.547508059481709,1.64888085189714
304,304,3.34226500747541,-0.081548146138968,0.98857184729491,1.33435620007818,0.245001143687202,0.128963816858116,-0.706369601780688,-0.05336049672147,3.11102376226148
305,305,3.3556555784123,-0.0797156715876136,0.990051493447736,1.34408681772873,0.193846387579108,0.162240939525538,-0.96710894404467,0.369374619179826,2.91633190176706
306,306,3.36925082480292,-0.0777934156609225,0.991471924815116,1.34957900692188,0.161598296422361,0.181606972467846,-0.840090045793793,0.500560285717458,1.78826555261481
307,307,3.38319968199555,-0.0758632802087379,0.992871019687966,1.3484374016637,0.160969296891339,0.186517191238161,-0.256535273941654,0.326301330141652,1.23574974975337
308,308,3.3974400974679,-0.0740862072516655,0.994268222332083,1.34780331760432,0.179353615552876,0.183907251827146,-0.27437111785771,0.431781882774425,0.818123807817517
309,309,3.41175167813516,-0.0723408695028455,0.995602238200028,1.35222058510202,0.201845760005254,0.175694731085588,-0.801418292956766,0.531739866771183,-0.643019057101089
310,310,3.42591455750004,-0.0705069172570439,0.996811337047686,1.35607621003451,0.223379412589072,0.163409525851516,-1.39905686165352,0.683005011804946,-2.29507684654363
311,311,3.43970940941912,-0.0684654399945186,0.99783309469816,1.35239668226155,0.238984956181688,0.14888050187848,-1.92246933116102,0.826020829499833,-2.94186201172368
312,312,3.45315178940603,-0.0661513457442799,0.998667707038204,1.33528034416185,0.243769402831558,0.129599822171476,-1.79022134512909,1.02912729779955,-2.83901962364639
313,313,3.46639192562766,-0.0636470854050178,0.999358913945722,1.30732712194875,0.241475224748822,0.104193524864343,-0.97741353872165,1.36823851194898,-2.65880977548322
314,314,3.47941286708373,-0.0610549584594521,0.999908027358833,1.27264859771176,0.233037197377227,0.075115628234708,0.0282987477540186,1.71340164159244,-2.51975722348463
315,315,3.49219757631119,-0.0584753573343867,1.00031515241948,1.23876056894135,0.221514531095301,0.0461042958615622,0.840378904674903,1.46513818466977,-2.37122324505326
316,316,3.50472891327207,-0.0560069645555304,1.00057932898438,1.21768086755145,0.209277147237396,0.0209902016965216,0.648530513222585,0.937468363407317,-2.46575146406569
317,317,3.51679579456138,-0.0537057527316416,1.00068568875389,1.20763334058668,0.194686447231864,0.000635496550305899,0.418136114771281,0.0597905014640104,-2.10089542689576
318,318,3.52841393117039,-0.0515084581212304,1.00063947909559,1.20513372575447,0.177572489449274,-0.0177162360742713,-0.041895429272377,-0.128253829291322,-1.98455796273493
319,319,3.53990416751896,-0.0493305398126783,1.00046723849007,1.20970317119435,0.161992386099944,-0.0349282894199773,-0.206178475926191,-0.253411337694681,-1.89965958174467
320,320,3.55158465534389,-0.0470825170988476,1.0001924926941,1.22098398233707,0.152404113678065,-0.0508805747327199,-0.553922731786744,-0.396178479729341,-2.03628705519185
321,321,3.56377138517813,-0.0446698623851743,0.999835331332056,1.23331536946665,0.148184428437701,-0.0662370625783542,-0.604858015253425,-0.141640226384785,-1.79009681633514
322,322,3.57655565670411,-0.0420893046476736,0.999372225028966,1.24779422479055,0.147898456084241,-0.0812722748015888,-0.657532455953955,0.317585687058829,-1.61091706762465
323,323,3.58972306866335,-0.0393951128761461,0.998791909370618,1.26214397453144,0.149638968744937,-0.0949532677768562,-1.0507905647451,0.508739003525448,-1.2733625700453
324,324,3.60312930860475,-0.0365776303601607,0.998126463155202,1.27607321685766,0.15389303232707,-0.107725873860872,-0.996446291609107,0.437703437811256,-1.41691334880392
325,325,3.61663025034375,-0.03362959741306,0.997402833453497,1.2880566583142,0.16071061893835,-0.119265396504366,-0.461290619259654,0.461464232470733,-1.38351721591564
326,326,3.63008300349076,-0.0305456607263692,0.996643035991867,1.29417099554036,0.169101317099904,-0.128803674346645,0.0219391003389864,0.700963527756987,-1.48328310512591
327,327,3.6434910663607,-0.0273134411734361,0.995790253743528,1.29276151803349,0.18230440425903,-0.136982552761054,0.807520230518027,0.829156123149745,-1.22133918147668
328,328,3.65694715489525,-0.0239326353186963,0.994823589006185,1.28791504308509,0.199619712971437,-0.143599276946797,1.28266122871178,0.84738778430032,-1.09075597357316
329,329,3.67044500877563,-0.0204205971266144,0.993813018163391,1.28402176926275,0.215579903841471,-0.148413141140945,1.54303776757855,0.827354674253647,-0.569153729238347
330,330,3.68398021549264,-0.0167991531867149,0.992824835913038,1.28115355010879,0.230313288965635,-0.151692894564853,2.04521116930151,0.769073967736471,0.0958148122739502
331,331,3.69755012348773,-0.0130937210338271,0.991922441486541,1.28390269201293,0.246928937390054,-0.150851726096244,2.72229068626868,0.670384364204856,0.266445417260117
332,332,3.71108464473508,-0.00927389004700147,0.991125891843379,1.29546758282421,0.258926035006507,-0.145290971564063,2.63292781688302,0.473414182790353,0.431319917296556
333,333,3.72458961706428,-0.0053277561912551,0.99038419836028,1.31176449450812,0.261941886027094,-0.137826462235181,2.00756220768093,0.41672816305887,0.664543430586268
334,334,3.73817705736101,-0.00130807897676798,0.989653528462777,1.33706458673693,0.264733679420107,-0.126376723681389,2.02774320994127,0.223723044303688,0.590430647839222
335,335,3.75195811408562,0.00273431621915101,0.988890831715834,1.36601657827181,0.265859532907165,-0.112628404341984,2.19463396983961,0.258561754080241,0.489397414863043
336,336,3.76604297581118,0.00674929761555848,0.98805408122002,1.39129796236708,0.265559336132567,-0.10020286151306,1.8300488906799,0.365751599677758,0.722585131567187
337,337,3.78052791500818,0.0108192804093087,0.987157641653085,1.41695927811564,0.272194034171298,-0.0867319194299208,1.54432335594935,0.363989171694912,0.245692905138457
338,338,3.79533965515415,0.014977473676325,0.986232175127487,1.44178302340056,0.284104239990718,-0.0711999073194125,1.84077983561454,0.84318140963044,0.40071671508526
339,339,3.81033297109041,0.0191004991237059,0.985260755499507,1.45833050320413,0.295216980762634,-0.0555607627178048,1.67244584059703,0.96890424378086,1.32621417488423
340,340,3.82536287874378,0.0230671692283254,0.984224131931375,1.49178640187259,0.304551023762858,-0.0324808254011901,2.04059698263687,0.685794130592897,2.19099078583515
341,341,3.8402848663821,0.0267586628127522,0.98309969337414,1.51073351474583,0.298258960533135,-0.0165281696510745,1.80496648499591,0.308816373297109,2.68751018222944
342,342,3.85520334513662,0.0302524510585099,0.981690138570597,1.51524578169604,0.28014395177706,-0.00714527474210185,2.14514948169412,0.570942340215832,3.2284291552267
343,343,3.8702126544867,0.0336309644605956,0.980014281732587,1.51329669416346,0.258394782529756,0.000734982584531873,1.70133783727375,0.965404685163767,2.29122472413568
344,344,3.88515467458913,0.0367825946483392,0.978370224715028,1.51154545967472,0.250274414131313,0.00998429926423848,0.357819286379259,0.592591603170887,0.514698242136283
345,345,3.89987335675094,0.0395941911418811,0.97705399728591,1.50731999839524,0.248022726921701,0.0194670167572324,-0.676620006205266,-0.0249726534594907,0.525224126768608
346,346,3.9142143717183,0.041951319698325,0.976359489790462,1.50218118705558,0.229690447759215,0.0287374917457667,-1.60865055975481,-0.00487126377894603,1.92381343902098
347,347,3.92806060808114,0.0435954737309486,0.976405037258178,1.4973869537523,0.195389616289788,0.0396238737961079,-3.05203250313572,-0.826940147803306,1.96865855988302
348,348,3.94151722814571,0.0446025738635292,0.976996611416104,1.48274500880981,0.154844503058184,0.0484611862620711,-3.78616219717422,-1.72683356400068,2.02498414220114
349,349,3.95476355694091,0.0453578370620122,0.977957339178206,1.45085890864343,0.124735840642714,0.0527811240949188,-2.95609981833435,-1.50763955878422,2.45951718131967
350,350,3.96797784808011,0.0462452289853369,0.979109126287996,1.4207929256212,0.0915839681706781,0.0567767773125918,-2.95354153523584,-0.741949179939752,1.63031802396091
351,351,3.98133711587773,0.0476478371996394,0.980272932382665,1.39917468280111,0.0693864384397192,0.0616458870375016,-3.86578069157972,-0.981501192529052,0.42347736101809
352,352,3.99490732478126,0.0495974998302587,0.981472241518532,1.37662119592158,0.0692296136082177,0.0675995196367473,-3.23983313427309,-1.63955710968895,0.647635774444864
353,353,4.00856867125422,0.0518372451956484,0.982830716854452,1.35116735557717,0.0908408048571699,0.0770213976848586,-3.46573992415403,-1.19987178761905,0.51449508521375
354,354,4.02221822541486,0.0543177319664776,0.984316950927971,1.32041551072212,0.131447583452645,0.0877408608490297,-2.15576307796708,-0.805493940110059,0.416426727679854
355,355,4.03575280814051,0.0569905807794125,0.98589603884015,1.29459551219702,0.175023119027664,0.0969364674350666,-1.58335887676691,-0.390430103965712,0.627119955341997
356,356,4.04906946822063,0.0598074126779533,0.987529570497435,1.28124802529202,0.208263403231485,0.106743605485354,-1.92462863388453,-0.158521350096429,0.167691951374086
357,357,4.06210098456952,0.0628523741422847,0.989302638854932,1.27073818638582,0.229797051569724,0.119817069274864,-0.376140716061538,0.359150635899893,0.893527692450419
358,358,4.07491457248564,0.0661590324188412,0.991241417714933,1.26365581629744,0.249516387504659,0.137055856251346,0.323831889012474,0.0677615075335974,1.83501717880344
359,359,4.08761017039024,0.0696017340872765,0.993215900210179,1.26761326672639,0.265326519647939,0.155792359616073,-0.786255928904449,-0.416149488903289,1.282509919876
360,360,4.10028854005025,0.0730544184921985,0.995094580981395,1.27735032231688,0.272958248162233,0.170525948260816,-1.60453256643563,-0.644975183717609,0.115445044505545
361,361,4.11305108014604,0.0763911490839034,0.996744257567039,1.28213241116612,0.269818884997425,0.174992685896876,-1.2194527541573,-0.927897721487229,-0.494812652419651
362,362,4.12598744858069,0.0796724136078094,0.998192565942935,1.28471206200253,0.250739222736422,0.166816733506073,-0.937279579700314,-1.09223720615548,-1.14085818186341
363,363,4.13903333107301,0.0829815940185225,0.999528553959881,1.28765985418685,0.223185118699695,0.148705208000434,-0.598065989729871,-1.44620536462948,-1.80945654826
364,364,4.15205915320305,0.0862284187338768,1.00070981811376,1.28770640141081,0.194131964072512,0.124368006094735,0.165474812517255,-1.67227372855921,-1.97621063747377
365,365,4.16493485298385,0.0893236385985679,1.00169381926126,1.28522059963073,0.170655377909824,0.098317620962967,0.356979036404662,-1.82031751474535,-2.58423386650886
366,366,4.17752982936806,0.0921788188282174,1.00243772382558,1.27888546983757,0.15702251905161,0.0743777691254561,0.395792749304994,-1.66402906814521,-2.97770977214909
367,367,4.18970419119401,0.0947303602608522,1.00292566972387,1.26229886217304,0.157000721738919,0.0513706144187814,0.531741092241441,-1.6134672576396,-2.97556306959696
368,368,4.20154689198128,0.0970411372151063,1.00318943019716,1.23694723782097,0.16532175624289,0.0262327252823948,0.263278580646671,-1.17398515052174,-2.76449590030104
369,369,4.21327066248301,0.0992109636048406,1.00325648366029,1.21144366668518,0.176385486948733,0.000587871146712279,-0.19023987645275,-0.628013470134352,-2.64301263378797
370,370,4.22508898739587,0.101336924694316,1.00315331037107,1.19082553006819,0.186787985084578,-0.0242876163578445,-0.170679165985442,-0.0202769422439254,-2.41308216685387
371,371,4.23721605137208,0.103513449760416,1.00290552512341,1.18251055352423,0.193966763746852,-0.0464452900154268,-0.0470528962916447,0.499764743388572,-2.16569073647038
372,372,4.24960505373181,0.105750661252607,1.00249204599851,1.1936716862212,0.196941589153128,-0.0653447133344752,-0.0993853455266129,0.803561879171522,-2.11459527597796
373,373,4.26211568288891,0.107982648053247,1.00190023452015,1.22020356718325,0.198747375123066,-0.0822786942181989,-0.260934513926745,0.807992861548201,-2.06140316222406
374,374,4.27482153523729,0.110187134220287,1.00116676844851,1.25379431023695,0.198394960086129,-0.0974674628046149,-0.119558630762127,0.531416873879104,-1.76774488484397
375,375,4.28779537842939,0.112341029431416,1.00032672171086,1.28747176812168,0.196326513909194,-0.110937542600741,0.266406627755287,0.222341917610754,-1.41767910303578
376,376,4.30110931167257,0.114420746084271,0.999413413571198,1.31467848996689,0.192857851595526,-0.12253334101473,0.576786390360667,-0.0870411832875275,-1.16826058222614
377,377,4.31480598414037,0.116374868580378,0.998392153523826,1.33335372787525,0.187433386240314,-0.131591267483413,0.894789421490874,-0.471017757452063,-0.62274344189627
378,378,4.3288351623987,0.118213283976906,0.997247004758629,1.35000001145554,0.180474958940456,-0.137882964341635,0.601114092974895,-0.7004210634492,-0.666573128785056
379,379,4.34312805426278,0.120006153827791,0.996033020112012,1.36410110011849,0.173227513805579,-0.143204684979305,0.874016108219385,-0.709221603704847,-0.544600637174861
380,380,4.35761557698441,0.121826443625929,0.994797832230536,1.3767037834257,0.165648178519611,-0.14850663590565,1.04954730660058,-0.645705651228923,-0.138176996887183
381,381,4.37222972682844,0.123749847767893,0.99358184543503,1.393602101618,0.160358546676703,-0.153718377673328,1.12003211287784,-0.560017251264725,-0.326871490464422
382,382,4.38703278847253,0.125869280590027,0.99235188768294,1.41673053912534,0.155178603748871,-0.160192693681095,1.20215488527016,-0.263150647809455,-0.782620657781248
383,383,4.40206567071442,0.128135586923687,0.99107661103941,1.44582324367226,0.148606304023312,-0.167238130162678,1.36649439013759,0.0513566076385522,-0.987740248293509
384,384,4.41723347350825,0.13041448802851,0.989785773293304,1.4751224945018,0.14209685240074,-0.174545567569203,1.38300015767066,-0.0150922984703131,-0.627811950533047
385,385,4.43244719785694,0.132572903931259,0.988498896736322,1.49861718683939,0.139177010622347,-0.181863991175015,1.82239818835826,-0.575838263650354,-0.035722014167512
386,386,4.44762254108801,0.134478334953225,0.987229537045607,1.51288768546069,0.142481565814538,-0.186508711554276,2.38019215463187,-0.623402353092774,0.303218655840632
387,387,4.46280772864033,0.135991501408014,0.985950068409174,1.51662427080655,0.160394386185056,-0.187898796885111,2.44796039899116,-0.629382450678336,0.899817926170225
388,388,4.47806462416703,0.137203462990662,0.984640507283506,1.52295255877662,0.186506850379594,-0.182983056728414,2.02225610165457,0.445771029981692,0.670257828605249
389,389,4.4933287092458,0.138326383723673,0.983328590060692,1.5262910876737,0.177289305051867,-0.173129823816898,2.669494866375,3.055919655648,-0.241784510955169
390,390,4.50853568969562,0.139571818644031,0.982040591034964,1.51991155036067,0.155550989184008,-0.16139763615248,3.78909453956718,3.4780429021927,-0.359258463389575
391,391,4.52362348133572,0.141151325839334,0.980797947792206,1.50881532171262,0.158139849479601,-0.148330293744501,4.14357915104865,1.47381786454103,0.183444933309864
392,392,4.53874815143272,0.14296931322606,0.979526561602216,1.50901512543271,0.166044532422464,-0.129603385580189,4.46404880230274,0.369229366598302,1.14534931862182
393,393,4.55395011812433,0.144883142797428,0.978216004375892,1.53041863130356,0.163940647053565,-0.0979575112982772,3.45851137750415,-0.0689794545195202,0.7971389918113
394,394,4.56899608598976,0.147033603761377,0.976978978309597,1.54654154294082,0.161916907081732,-0.059295457654718,2.86402908079914,-1.16026577199421,1.21136707513279
395,395,4.58365341486367,0.149561483400832,0.975926680855836,1.54928235678247,0.187190556131698,-0.0305268016639076,2.64460599471538,-1.65354373109399,2.30269695348194
396,396,4.59768990258741,0.152608288266974,0.975168175826283,1.52683375534896,0.222703889708812,-0.0106224629000302,3.17575644191112,-2.14775853063874,4.75725972226365
397,397,4.61079949692387,0.156332586608509,0.974654458108191,1.4993189806123,0.254878273321831,0.0146366966883868,1.89947657367043,-3.41920529454406,4.5542909614284
398,398,4.62313639421682,0.16063893169359,0.974315062941396,1.48418331730193,0.270731830753707,0.0494735257659513,-1.22858456370155,-3.1117162718225,2.81389183715649
399,399,4.63515997368795,0.165290636513184,0.974224579691493,1.46306171787865,0.303128102462992,0.0838017648540549,-1.42735074015309,-1.98229547951829,4.32786039218662
400,400,4.64733109717588,0.170052625278343,0.974457936505231,1.45009497721135,0.353366757866678,0.111542512694721,-2.70521104814139,0.513452444752058,3.99679110409021
401,401,4.66011156619247,0.174690244763333,0.975091137664672,1.43395403877138,0.419379857862564,0.130266663686231,-4.02554615402661,0.356952644174739,3.55030859951769
402,402,4.67359137055723,0.179445695515482,0.976270602477732,1.42859872616792,0.421267156610537,0.132320283549488,-5.0996358619523,2.20460638805847,1.99286398407725
403,403,4.68746439503759,0.184477015517288,0.977954616564646,1.4260598781829,0.394913459194045,0.121956640527971,-4.67014378506861,2.4665248475967,-0.923377562220104
404,404,4.70159677865946,0.189422163692525,0.979935089935623,1.41134465011853,0.398136558803644,0.107380103268104,-3.72086880505121,0.722928869164566,-1.71167600141848
405,405,4.7158526608696,0.193918637181532,0.981998920690844,1.38882210715697,0.401456255947803,0.0963930997821879,-2.56982786834307,0.377903321510391,-0.367524533924257
406,406,4.7300948671307,0.197604171152299,0.983927654794803,1.3791078951917,0.38065612358131,0.0983856206276353,-2.24107819932905,-0.411884169182507,0.336300437459702
407,407,4.74436941980447,0.200252243174562,0.985773208952035,1.38884667279147,0.323968726138389,0.117221778902486,-1.52038945017541,-0.519635533955578,0.302922946556378
408,408,4.75876493493555,0.202102386562108,0.987684893818988,1.40373206638298,0.258007963088152,0.146682451035997,-0.552391785056065,-1.25634195040911,1.55735414086018
409,409,4.77320854499248,0.203492214244072,0.989583994949576,1.4195193457863,0.191469741180672,0.17822415853596,-0.198686541325454,-1.06198710290089,3.02157773508477
410,410,4.78762791193162,0.204760019019785,0.991387818827008,1.4318444930647,0.134199498159027,0.202773188104441,-0.504770268630501,-0.854457656001012,2.39074091478118
411,411,4.80195108741667,0.20624535303979,0.993009544182435,1.43243591826726,0.104650416641509,0.212539550701019,-0.192204049977257,-0.488545326797992,0.747790765779178
412,412,4.8162330520523,0.207922627305207,0.994461029092009,1.41957080866522,0.10675493593989,0.205223938317272,0.0334884427559617,0.0272194338314543,-0.375988928315123
413,413,4.83052375638249,0.209567560955336,0.99579807703555,1.40263244542842,0.12823269910604,0.186793638342145,-0.421105843802155,0.36301378079388,-1.26555075196678
414,414,4.84474447038052,0.211221370082156,0.996996815805376,1.3878145253294,0.156725331162412,0.161679778122272,-1.16955746638352,0.459872488203901,-2.35099693815663
415,415,4.85881681733859,0.212922953888502,0.998033086926901,1.37221359369672,0.185496599076371,0.134031035534533,-1.56404240841663,0.616915299025873,-2.89537207496421
416,416,4.87266261355186,0.214708620575192,0.998882198449683,1.35661724939646,0.206318608579816,0.108477224079425,-1.64817477179644,0.897719338746995,-2.7605117013257
417,417,4.88627247194706,0.21662643044685,0.999528932613507,1.33708554816592,0.215125389080541,0.0824992173211399,-1.79920964781942,1.42173416976945,-3.09984884071691
418,418,4.89970227729211,0.218647736500334,0.999990956871573,1.31090087250598,0.217835251058345,0.0527462654469826,-1.42003659174036,2.01565917101072,-3.07265360199497
419,419,4.91297169941226,0.220694489097974,1.00029179597694,1.28175919250751,0.213472921018792,0.0225276121243572,-0.616737295688574,2.4364434287731,-2.81215737021083
420,420,4.92610032846068,0.222692166600991,1.00045429194333,1.25698867841442,0.200283748511603,-0.00550956731557864,-0.317727382195313,2.35175631083465,-2.76691100589838
421,421,4.9391077468126,0.224569260863023,1.00050090925367,1.24151672352594,0.181388576602655,-0.0284475797148933,0.125714761290181,1.53409417342141,-2.47189807702775
422,422,4.9518274981187,0.226224332288297,1.0004191446092,1.23753758013827,0.156276890188171,-0.0444121053306345,0.526557954503033,0.864118582626848,-1.90835807786072
423,423,4.96425025519574,0.227705464097014,1.00019978227282,1.24455700393305,0.127423225005473,-0.0551135455651389,0.439028797909796,0.0326631705455344,-1.69176077435237
424,424,4.9766289319443,0.22916998638525,0.999867547801014,1.25661183400941,0.100822614277891,-0.0629386905534295,0.886720800666208,-0.567106945195707,-1.11515034775745
425,425,4.98921352805152,0.230779643768344,0.999443069222847,1.27268665068027,0.0808398726471209,-0.0697463392036564,0.7539231081634,-0.924675207496882,-0.927193643644144
426,426,5.00225193358995,0.232700829380057,0.998942328509246,1.28926814699592,0.0726842001788236,-0.0773932709621154,0.264152818556928,-0.816553748492135,-1.0137307097656
427,427,5.01579276582136,0.234945693192208,0.998338185034225,1.30272976954686,0.0780764786333924,-0.0862078926096677,-0.182585338237786,-0.312431993856748,-0.961265604681535
428,428,5.02966597158311,0.237414741257583,0.997619962865677,1.31909520743181,0.0945255066317968,-0.0947052943870848,-0.591927568801183,0.0279607262233795,-0.71077614571683
429,429,5.04379068992132,0.240105408124142,0.996822117344224,1.33644284625141,0.11454831322632,-0.103257315395128,-0.901122040475361,0.410623393382409,-0.65527923103829
430,430,5.05808702258559,0.243009137159358,0.995975426941189,1.35228439755086,0.135440822815842,-0.111529219751144,-0.95270822551734,0.598526951124334,-0.776679220815893
431,431,5.07247680511754,0.246112094361819,0.995107091307653,1.36476900857429,0.158210306843911,-0.118975331714892,-0.689761676546813,0.59321745788483,-1.18377440474628
432,432,5.08702887204895,0.249492569083942,0.994207181353983,1.37320352935238,0.182918465657149,-0.126623912611212,0.389307857881876,0.520258391520321,-1.28852017622722
433,433,5.10179321659591,0.253155798735985,0.993253441912899,1.37876259784231,0.20596651435951,-0.135261852576594,1.15609619791049,0.655374487679945,-1.19019733893442
434,434,5.11666696428324,0.256975055341621,0.992247427751386,1.37862904685489,0.217947994440035,-0.144992553224295,1.8623438237107,0.926374785317184,-0.698705766084793
435,435,5.13155022044186,0.260823832306866,0.99118480122818,1.37414028515301,0.228087339994388,-0.152827952983172,3.35780585517279,1.01346547978699,-0.0242846807893339
436,436,5.14634578580047,0.264576141920136,0.990057201899134,1.37365458163084,0.241653584520437,-0.155715207572436,3.13183362834696,0.669196365882096,-0.432540514675098
437,437,5.1609971214051,0.268262381857719,0.988845164911696,1.38112164035148,0.232513537107373,-0.156123711867379,2.56618240164795,1.10246268767878,0.508683945629883
438,438,5.1755745652349,0.271965768941951,0.987544706105543,1.40923732259347,0.210807837753366,-0.148187774659793,2.67257471994552,0.369813849296075,0.795152897681093
439,439,5.19017111567986,0.275640451911481,0.986171298305543,1.43971891504886,0.192616929044367,-0.13785205039364,2.00912694486961,-0.253770455735741,0.298618404867935
440,440,5.20487800356392,0.279240333433944,0.984741337502589,1.46639146154097,0.182377905210536,-0.126510858654812,2.08694735895022,-0.227986463882125,0.0398309257132694
441,441,5.21978521358981,0.282718660225989,0.983271213906591,1.48791276706174,0.181506669724248,-0.114642341972702,2.17205264552904,0.162565234021096,-0.452027123985252
442,442,5.23510793737747,0.286210334440909,0.981597811975409,1.50479110914873,0.188802062560234,-0.099108606005626,2.02731972067178,0.943245545733174,0.332328908757156
443,443,5.25078456452328,0.289746244402391,0.979714077998602,1.5204373157798,0.206718991066937,-0.0765910736301351,1.34971103850338,1.28407000149686,1.73041235902844
444,444,5.26648959011198,0.293124311657756,0.977869979190327,1.54017698973715,0.220689548828739,-0.0501722400700717,0.767652970212267,0.821670592549632,2.28870053192161
445,445,5.28189834533076,0.2961443067325,0.976313765102862,1.56325259525971,0.22472228135641,-0.0243747244966697,1.05312377273622,-0.00567522191404672,2.66254730256429
446,446,5.29668716665816,0.29860748370086,0.975291047928231,1.55588991117785,0.213359573146937,-0.01195995255702,0.922108094482265,-0.182598255826192,2.66774022494103
447,447,5.31067422733145,0.30039448782611,0.974895630538059,1.5370344279649,0.177121190927015,-0.00715708272408263,0.737179730229815,0.921472202239704,2.32552845997999
448,448,5.32407444085038,0.301643722470499,0.97496839673823,1.51250245089832,0.151938200702797,-0.00555893144198511,0.459593708029971,1.05635884674442,1.15048848734342
449,449,5.33716094760767,0.30254010353925,0.975371501838369,1.48929129175627,0.13506869978439,-0.00432043961971701,-0.492336061550798,0.537348221035147,1.13861565831531
450,450,5.35020811016028,0.303263754151426,0.975964640242838,1.47464910849155,0.107811088031821,0.000320770770364818,-1.83476781065788,0.185928021489661,2.01818961537526
451,451,5.36349091733994,0.303990410834852,0.976605432967316,1.46403403334057,0.0822676087104231,0.00961998330341133,-3.21950034132714,-0.889819706568134,2.15015686746426
452,452,5.37705286613599,0.304514966944973,0.97730237645903,1.44770704892085,0.0631396190923418,0.0197370463855444,-4.08135683509358,-1.20347118710027,2.22671872899687
453,453,5.39071182928856,0.304713916078959,0.978152723852623,1.42302869475271,0.0453669545487839,0.0301680594432011,-3.47902103444409,-0.874967395766982,2.63512603843592
454,454,5.40440389408094,0.304884016247001,0.97914455168172,1.40334375764136,0.0229655677305379,0.042733858508375,-3.78289745585465,-0.754088552048612,1.89608492179001
455,455,5.41806424507344,0.305323980221653,0.980263788893685,1.38535167339381,0.00982949217586226,0.0572856053546266,-3.77197039418289,-1.22224851689506,1.54312452645291
456,456,5.43162717270624,0.306334521255731,0.981494281991537,1.37261704016504,0.023175264232085,0.0763723660761493,-3.73497940300393,-1.8388970533835,1.08097372118147
457,457,5.44508289767313,0.308015323768358,0.982861909089141,1.35682654010211,0.0605173745523954,0.098488903451464,-3.25859003482436,-1.973653932112,0.77520531869014
458,458,5.45847342133278,0.310166420770394,0.984379800789927,1.33658317040966,0.102596978604103,0.121484216246875,-2.1635952025954,-1.23833821208597,1.1971729683303
459,459,5.47180999104464,0.312641361262687,0.986009514916434,1.317194553511,0.145461813963125,0.141712454397885,-1.14179380704688,-0.720392632758167,1.61815170428356
460,460,5.48510396993853,0.315294157439543,0.987709792114681,1.30015238650612,0.185153321749527,0.159520781188285,-1.1600160788234,-0.522260786701303,1.22348861688261
461,461,5.4983674047102,0.31797846929726,0.989436587994702,1.28404775057458,0.209033080556886,0.171920060968329,-0.453184824203027,-0.22714325187946,1.29616722716649
462,462,5.51162421390861,0.320822890095223,0.991288415220203,1.27741968579303,0.216356773708933,0.181577296286306,0.231459310837689,-0.41437726711823,2.01449152363016
463,463,5.52486716950576,0.323927506689445,0.993295040717181,1.28860043148075,0.211720559389401,0.190808843201486,-1.1768678807097,-0.369955009616183,0.469239696700563
464,464,5.53806292280539,0.327101410314332,0.995307132179097,1.30183863357852,0.200258978393367,0.196366606598949,-1.26244945450047,-0.660588206632916,-0.6351033588793
465,465,5.55117848710328,0.330152620705607,0.997174420553198,1.30946169585803,0.18494399322892,0.195679422747322,-0.673425498065578,-0.836790252280889,-1.09997716967118
466,466,5.56418099096574,0.332888451494454,0.998745349302961,1.30873701392215,0.169857677187779,0.187315955160105,-0.472531090945391,-1.14185306015944,-1.67208633342625
467,467,5.57708574270517,0.335276945167108,1.00002222342666,1.29999845406266,0.156165857894695,0.168467174198406,-0.108326201596281,-1.45760276245452,-2.17064553559546
468,468,5.58991890154678,0.337444985737973,1.00110837902077,1.28738918202369,0.138527844473917,0.141903930624707,0.109399738031439,-1.53471719863545,-2.53372341088964
469,469,5.60266331917671,0.339438740584029,1.00200226658952,1.27549262614505,0.120197960880637,0.112146178964448,0.157574927655496,-1.72280726413533,-2.79217609298095
470,470,5.6153010337394,0.341305614311777,1.00270164079263,1.26667338819387,0.10667130938531,0.0824579448533366,-0.285875903315702,-1.63570988439913,-3.07897749607214
471,471,5.62781315271041,0.343094204763914,1.00320341076272,1.26076061638846,0.101919235600828,0.0562600667182091,-0.578176488537823,-1.30622194192398,-3.09037229524516
472,472,5.64005766126989,0.344759290568118,1.00350019119418,1.25370734813581,0.105286654966718,0.033319998321671,-0.665806185064778,-0.718358391448301,-2.87074251528769
473,473,5.6520484157528,0.346272497039003,1.00359816346789,1.2423499272626,0.115986332638454,0.0101205040228673,-0.317833399566208,-0.14356771969905,-2.40581098195609
474,474,5.6639997346771,0.347705457067628,1.00351288745938,1.23086036827479,0.130117283727315,-0.0129276975762707,-0.133770359599185,0.40071836464155,-2.24041709982883
475,475,5.67612624932974,0.349125650222378,1.00325854657955,1.22342917330221,0.141454312917265,-0.0347618502771428,-0.194107571188341,0.798561517888986,-2.22645231138629
476,476,5.68864295659199,0.350596766283728,1.00284796318665,1.22349027190686,0.146539267917772,-0.0549955971874607,-0.214108932096659,0.995359736730694,-2.22141324921137
477,477,5.70158529280103,0.352110992007655,1.00224668917518,1.23340840813201,0.146362318458294,-0.0732397922560949,-0.145982069485728,0.84271774661033,-2.16884084157943
478,478,5.71481044070588,0.353619541511612,1.00145165984908,1.25117425873214,0.142469922157757,-0.0892827413890381,-0.0337337050217443,0.602181888603864,-1.8194037778775
479,479,5.72826452565204,0.355123868832057,1.00051839841462,1.27251562133763,0.137560011351769,-0.10339118874411,0.0485272387588481,0.107050488667094,-1.34344257150783
480,480,5.74189209746476,0.356627271968211,0.999497167941247,1.29404528089844,0.133856591234617,-0.115880207191427,0.0283762860799082,-0.390839273586607,-1.17621069117853
481,481,5.75563712846355,0.358134610938398,0.998432784538851,1.31196766795241,0.131630980131945,-0.12716344844086,0.119576182600397,-0.546402908523776,-1.25044887125481
482,482,5.76949623909534,0.359687763683084,0.99730250501433,1.32459704037755,0.131015573064773,-0.137686804731766,0.295913295076815,-0.516925230055142,-0.920026855625787
483,483,5.78350295336257,0.361281427240568,0.996073672592785,1.3350713763273,0.131653406711721,-0.147555785545222,0.346355817428217,-0.314309684064759,-1.02874609323446
484,484,5.79765747925979,0.362853187822343,0.99476732050631,1.34267621242259,0.131423782349504,-0.157014933958984,0.876601728625864,-0.0836621432342744,-1.05752853474606
485,485,5.81196167315553,0.364343878201411,0.993397880863504,1.34846101938815,0.129721985643764,-0.166296803879989,1.28552218511412,0.0736465334369617,-0.75323958510537
486,486,5.82641952006439,0.365697080163309,0.991974659844936,1.35703431642702,0.125725134384763,-0.174609603318259,1.79900877007246,-0.127096895159015,-0.194399119218696
487,487,5.84112623055561,0.366879711987541,0.990475463871098,1.37585125029564,0.113310802972417,-0.18157807879581,1.48796600028997,-0.326164818917868,-0.18740494422201
488,488,5.85608138721549,0.367934338847175,0.988881736361185,1.39628042093636,0.0921652675803014,-0.18932675760784,1.49160066135175,-0.578277551812895,-0.512852223917146
489,489,5.87114822172778,0.368917215018256,0.987206129689025,1.4194779231771,0.072974240442164,-0.194146336631675,2.00672977251514,-0.552949139483508,-0.655860662739408
490,490,5.88619094455602,0.369882358050856,0.985462080493783,1.441742345503,0.0666083009212229,-0.19561883689672,1.98291592392387,0.0135214170983695,-0.415142197081147
491,491,5.90107389179198,0.370882701280698,0.983664488883752,1.45910661341732,0.0655649768566465,-0.192433881718152,2.13876535630353,0.659216007023445,-0.575443863699142
492,492,5.91582403577424,0.371818550771442,0.981574967845983,1.46103399695393,0.0636825919861594,-0.184436242471353,2.97278844035476,1.42163939411319,-0.270432631550389
493,493,5.93053190637963,0.372654533340718,0.979186984729551,1.45334150806581,0.0615061011750251,-0.17197858009785,3.30188671736328,1.44280909886785,0.0486613300291396
494,494,5.94515662656108,0.373539130311192,0.976863289307582,1.44329684329171,0.0680279591562229,-0.155285546166429,3.66976790577434,0.776593620767253,0.550840945589687
495,495,5.95965952221217,0.374618845664616,0.974961482887882,1.43862937181352,0.0818251740371201,-0.133635150500422,3.61667517099027,-0.100013209630034,1.80172231201034
496,496,5.97400465945401,0.376038145743121,0.973833054455776,1.43960092759609,0.0996617267090597,-0.107558337255671,3.30959508299157,-0.914300522064678,2.74288014408096
497,497,5.98823590301555,0.377706555719986,0.973669183086947,1.45076159485629,0.131319080132001,-0.0755771298416817,2.66597904476576,-1.04004814044164,3.05233052243431
498,498,6.00237543232566,0.379525193499321,0.974238255392623,1.47403360525704,0.175784260347586,-0.0414087229522991,1.9093656981496,-1.26141488862572,3.48661851156202
499,499,6.01635726339717,0.381625402383695,0.975254132697172,1.50189639207631,0.212923415695454,-0.00630065177224342,1.46655648727379,-1.78990760997477,3.81393433204932
500,500,6.0301181350412,0.384139130584875,0.97642883312745,1.5321543219017,0.230204635929494,0.0300606118602193,0.950878860513692,-1.26786060376155,3.13821247890549
501,501,6.04359772071522,0.38719852615872,0.977471570979015,1.54562964203124,0.244289358085569,0.0599945751524752,0.763001588089116,-0.957208229361497,3.35992755903713
502,502,6.05664629594263,0.391077971405428,0.978403233922262,1.53136949183225,0.281063156157053,0.0786731830124939,-0.283689634906605,-0.569170324460597,3.79167700623467
503,503,6.06930797179792,0.395685601000236,0.979422256072728,1.50457723537274,0.339451279226292,0.0875568723903092,-2.84244850283632,0.503824036985186,1.98195664930484
504,504,6.08181369136044,0.400607534234477,0.980499900733492,1.44805106876638,0.406104245306554,0.0860622405582076,-3.47151851168717,-0.200742184046607,2.30607382573172
505,505,6.09439220391268,0.405435045338121,0.98160419908129,1.39959176162229,0.426691368230478,0.0828860585036876,-3.87605271231955,1.00961711628519,1.28146110987241
506,506,6.1072695305336,0.409763874469118,0.982700798339877,1.36614470707185,0.422940263530101,0.0824840704384021,-3.86657718088402,1.16286228947709,-0.708324145254167
507,507,6.12048997367644,0.413726527826021,0.98376333810716,1.33434870779533,0.4154667753855,0.0817342951546291,-3.07814459334216,0.112852303800026,-1.11209727163315
508,508,6.13389976275901,0.417598473901182,0.984818145710903,1.30690234221978,0.383438351652468,0.0822423773394438,-2.95868060515722,-0.01067582331187,-0.771145885762718
509,509,6.14742608074128,0.421189196984824,0.985907831658914,1.2980326907278,0.315498996174402,0.0881117651033992,-2.38815941310909,0.277878063770873,-0.038772850653528
510,510,6.16099657513365,0.424305296364815,0.987072060368463,1.29832692620271,0.251541175274002,0.0973734417087485,-1.80773717623163,-0.509871331218858,1.13231277532736
511,511,6.1745393377004,0.426751883543413,0.988346790558248,1.30306829399418,0.206788712289534,0.111758594160209,-1.2922817750651,-0.889279688640681,2.3707356958387
512,512,6.18800906684121,0.428227059645026,0.989819529047273,1.31082159504728,0.169839607276944,0.135916229548998,-0.370825277969563,-0.246501862555374,3.76064940382432
513,513,6.20145274522154,0.428858656057229,0.991467540638484,1.32385730624137,0.131822434360788,0.16880849325044,-0.565364460937636,0.0406482855034033,3.48096354987662
514,514,6.21493772603139,0.42909646863094,0.993157037730605,1.34112183419739,0.106277521912588,0.202487297916226,-1.43360719523587,-0.43930545045289,1.9178068892869
515,515,6.22853183842444,0.429390348786372,0.994752650990259,1.35476777486268,0.0914383233255452,0.22792509857625,-1.36834816268573,-0.131592944974085,0.867614183084551
516,516,6.24230343737043,0.430189765089218,0.996117636391753,1.36149258920426,0.0837584179795391,0.23553179947988,-0.927418327633295,0.430597753390775,0.128501958082029
517,517,6.25647753749492,0.431568157396261,0.99727724417693,1.36451160319366,0.0916100073691146,0.22075122582527,-1.14379243959848,0.456747099429347,-1.36585888484679
518,518,6.27101134348431,0.433226223699984,0.998322026411012,1.36449984175487,0.117015673338891,0.189855473384244,-1.40878807712525,0.422364811689522,-2.60603849895412
519,519,6.28557213334267,0.43505271194931,0.999212220257502,1.36209168616816,0.145830155759897,0.150218826721468,-1.84882939903116,0.790792375819411,-3.449768377154
520,520,6.29982714068351,0.4369348797862,0.999908102401753,1.35682739361654,0.167436925198922,0.109354413468944,-2.26717333404295,1.23940201517913,-4.02642181331953
521,521,6.31344348195929,0.438758449765617,1.00036978485737,1.34463510774117,0.172893023470308,0.0745600082090172,-1.35654807975153,1.78922337396352,-3.13544737638547
522,522,6.32622331745038,0.440520156538763,1.00058412326938,1.31992518481943,0.16378169102304,0.044998437443851,-0.415372840911185,1.87180817293357,-2.88117084021046
523,523,6.33839204293693,0.442289864204533,1.0005803367158,1.28291636527501,0.147462420675427,0.0154953192462248,0.159089640303824,1.12937909298563,-3.12053448744836
524,524,6.35025154258581,0.44406552037614,1.00038104157348,1.24132707110936,0.126311828051194,-0.0127958192795128,0.528382993452474,0.642598536388783,-3.02250433031158
525,525,6.36210364371784,0.445849853567562,1.00000808556947,1.20403013982279,0.105390888984435,-0.0390596965943604,0.729911579264972,0.417578581878691,-2.59164465197718
526,526,6.37425005109154,0.447649983616668,0.999482906351232,1.1828810179396,0.0941937416569424,-0.06173845606593,0.459514430164758,-0.027812869894752,-2.19481940783497
527,527,6.3866306578253,0.449390948398184,0.998754768246245,1.18558540836485,0.0939647450018377,-0.0796261966919603,0.153590311804989,-0.278562186511206,-1.98099790792899
528,528,6.39904790068818,0.451070420601745,0.997816341734689,1.20979722061689,0.0993637280996581,-0.0931377248430732,-0.516325812131501,-0.188776793891563,-2.05915035443025
529,529,6.41159440463708,0.452809363190829,0.996750919796806,1.24337874789406,0.107496359799984,-0.103488759121359,-0.850524400567385,-0.023737965615025,-1.77103705198454
530,530,6.42435956464404,0.454732072335652,0.995636577402235,1.27443167069993,0.116734733434098,-0.11213932369887,-0.974588557028297,0.467226218446149,-1.14782284915654
531,531,6.43743060618024,0.456966425166715,0.994545565135627,1.29462292809368,0.122724122030663,-0.120930522653746,-1.04524751904906,0.932074960485063,-0.637711002028077
532,532,6.45086261314938,0.459630330336478,0.993472996047838,1.30334214695693,0.124836200669966,-0.130788752376964,-0.735235078257657,1.12220421628056,-0.43035489981444
533,533,6.46459218026883,0.462649408640687,0.992368418749715,1.30618435968228,0.127857040491026,-0.140001803566815,-0.283769850690853,1.12056714911175,-0.507288733637607
534,534,6.47852836486707,0.465861183150438,0.991229311562563,1.30424315966198,0.13216315737862,-0.148042391295978,0.189919404038976,0.984619708183887,-0.767000110188991
535,535,6.49258153588017,0.469097423576257,0.990050487825,1.30064984232244,0.14086452014565,-0.153943851156999,0.705558750062044,0.661429529582582,-1.1006390394227
536,536,6.50666399604937,0.472184694298088,0.988824343210572,1.3012397852673,0.153918498947232,-0.157947860818113,1.06175364656274,0.162990807534429,-1.17536326056372
537,537,6.52072426998048,0.475030510873982,0.987564209070761,1.30894596456021,0.164681778398665,-0.159568200326081,1.82422605925513,0.137210181565822,-0.928859729280962
538,538,6.53481880175107,0.477746731460609,0.986271074138091,1.31879925684898,0.169491142784115,-0.15969630393089,2.10305121576643,0.207099629697447,-0.49311930629842
539,539,6.54902550247591,0.480462779354178,0.984912900252159,1.3243198580201,0.169083785158605,-0.160008334411236,2.69320872226862,0.374317305854551,0.0707593813177353
540,540,6.56342582480139,0.4833082709906,0.983452244885599,1.33400494201832,0.172728070721645,-0.157989718610145,2.99291183120918,0.701128419691777,0.233220712414495
541,541,6.57810423276793,0.486413484791587,0.981848002317215,1.35337057896944,0.170472439101903,-0.152346276716936,2.38890048358642,0.728086554884867,0.40012465860286
542,542,6.59334529857315,0.490010075364241,0.979809525366848,1.38034381563031,0.163372623951135,-0.142918309381969,1.97370177206876,0.322912699645345,1.14704746915886
543,543,6.60909811066634,0.494009722151633,0.977356267621268,1.41078416083877,0.161899539574386,-0.128887499317912,2.70741150488427,-0.321569957346867,1.25192574569756
544,544,6.62494332697228,0.498063870842522,0.974912350039936,1.43651700782522,0.161902920560061,-0.113728993843813,2.84916418620919,-0.211179522128089,1.10649817526861
545,545,6.64045979192379,0.50182457293867,0.97290213921262,1.46037618937324,0.16432541377273,-0.0971414667567532,2.71500104818117,0.197764426993552,0.886543135899196
546,546,6.65522530560612,0.504944204094065,0.971749598731396,1.48048335548983,0.169810636608077,-0.0764210439727141,2.9102645835633,0.457725449145889,0.77501639879544
547,547,6.6690035541783,0.507355311974365,0.971690735758692,1.50047693016509,0.171845686087974,-0.0465844436371248,2.44996326831173,0.19059263574443,2.23062158935483
548,548,6.68207273303404,0.509292684342101,0.972447006475129,1.51680474683889,0.166825670950908,-0.00795694228753992,1.73245152364461,0.467372948564349,3.56988503907199
549,549,6.6947836723504,0.510861467228062,0.973670321441408,1.55017932218018,0.160083373466024,0.0364782953145312,2.10930043859848,0.418406799277524,4.30934963047269
550,550,6.70748992190983,0.512165196438709,0.975010954768021,1.56254881210971,0.148571524498868,0.0678042812649251,0.92248746708226,0.164798479811553,3.45801739381557
551,551,6.72054761592322,0.513305273303472,0.976116155480382,1.56477427384803,0.123297250814907,0.0860421248135132,0.543329635503399,1.18687133313306,2.64457814686276
552,552,6.73402965411176,0.514147431421673,0.976958574314581,1.55076740716826,0.0967161278338172,0.0860453212422179,0.666824803065638,1.51458155206638,1.16248111460863
553,553,6.74770139324582,0.514624246825011,0.977779152434248,1.5221681423372,0.0978334512510116,0.0736547092510237,0.276401665974492,0.372684399633313,1.09935169498889
554,554,6.76145883338135,0.514934476782711,0.978622604879952,1.50162846414541,0.0939295867353782,0.0586717332008554,-2.29313226182874,0.0675551646584002,0.526061557297224
555,555,6.77519731942193,0.515275084909546,0.979530603100162,1.48389028978149,0.0847687527942382,0.0456277092752476,-3.99485122808428,-0.526029824626435,-0.0509971995139937
556,556,6.78881106057215,0.515841491827842,0.980542519219353,1.45765252774323,0.0706910214818543,0.0386897251019114,-3.68218694472324,-0.76530396682112,0.433320776260708
557,557,6.80229534924533,0.516587166122135,0.981673736808752,1.42276282907945,0.0528598036475053,0.0395034719397282,-3.48107881144063,-1.06516528501704,1.39373782453342
558,558,6.81572081234172,0.517376496004603,0.982901223179327,1.38455773486163,0.0345838749275167,0.0444728559267528,-3.86417799726433,-1.25254548677037,0.988617289280159
559,559,6.8290926785811,0.518272438296159,0.984204141503655,1.3449847538328,0.0249166489539101,0.0533777559471935,-3.61861075540146,-1.23667147309715,0.535142200775071
560,560,6.8424149150112,0.519340828845035,0.98555894090783,1.31262501678948,0.0264655204918712,0.0682356090972206,-2.61748128681733,-0.912916517841805,1.49285295831096
561,561,6.85569041723537,0.520650229300278,0.986939185886845,1.29443489533747,0.0333898679587921,0.0862793395376069,-2.61840805039247,-0.586767200769559,0.817162841604201
562,562,6.86890069684035,0.522223650575883,0.988359975889909,1.2879635774227,0.0501497981448753,0.108384733964841,-2.32708146115047,-0.429393073961404,0.915744604157721
563,563,6.88204080816771,0.524017398350908,0.989842156570754,1.28826955829379,0.0821741002999681,0.133090249297946,-2.00676335124664,-0.526753968097278,1.22481833287041
564,564,6.89513368035362,0.526001858104055,0.991363374961123,1.29175755385069,0.122897690023284,0.157919476838475,-2.19342351975477,-0.750815290169475,0.576872074811503
565,565,6.90820280972354,0.528147495406774,0.992897472376948,1.28614710226785,0.155324042237822,0.176922006637446,-0.0176227125946544,-0.142564918987676,1.59091186135351
566,566,6.9212727264039,0.530424617723563,0.994414614922951,1.27870286576647,0.171384842851302,0.186048700555535,0.389742483819124,-0.327666968182071,1.70129441694151
567,567,6.93444619150793,0.53297201646307,0.996000613772541,1.27935510477949,0.171521819798297,0.18403429319143,-0.955029401582744,-0.390516607567535,0.0467023234397887
568,568,6.9477087882908,0.535811338234208,0.997673883841676,1.28106828671006,0.162455810650944,0.173448136013284,-1.03509707255909,-0.535441406492544,-1.22145497300179
569,569,6.9609104757642,0.538736812999848,0.999301453275612,1.28053559188546,0.150852268159016,0.156551186409298,-0.863353177693979,-0.765351200152417,-1.97961758885708
570,570,6.97390102092863,0.541542871545823,1.00075018313046,1.27752198210977,0.142200866581485,0.136015978537523,-0.799656911991418,-0.982282261660097,-2.79738066692689
571,571,6.98652968402511,0.544024488834159,1.00188622804688,1.26739248943406,0.136768596889675,0.114288416020377,-0.158936183249033,-1.02371742720065,-2.92648395818597
572,572,6.99868006584293,0.546133211112029,1.00268981825513,1.24855981709721,0.129177544340435,0.0903892542948413,0.0696566277650663,-0.847501096136412,-3.03412318591006
573,573,7.0104557424468,0.548009640944381,1.00325275919618,1.22269457793849,0.119466625385088,0.0626809282492175,0.052769682548358,-0.713717831767974,-3.24078140639077
574,574,7.02203559169376,0.549730865896238,1.00360691953683,1.1960211706546,0.112996373116086,0.0335116993176612,0.184474643043609,-0.847366814281247,-3.0310328686516
575,575,7.03359880787799,0.551371097690778,1.003783118393,1.17446956147349,0.108835878205662,0.00667952892461206,0.171166480698026,-0.578800108573656,-2.64721828990908
576,576,7.04532494411056,0.553001637110448,1.00381131535859,1.16431352549149,0.110939068389523,-0.0151480826019168,0.152519495650741,-0.515896152385157,-2.36778655542708
577,577,7.05707148808033,0.554562614917665,1.00367885662098,1.16541199790882,0.119220368234599,-0.0309182899263951,0.423052183783698,-0.408216135579281,-1.77374204225042
578,578,7.0687214839094,0.556005186145671,1.00336984997789,1.17738691404739,0.128508178717951,-0.0421743246263589,0.386747484334976,-0.150012561095129,-1.40903099130832
579,579,7.08049286008142,0.557413410569504,1.0029081240229,1.19759652500803,0.13676087587049,-0.0508613014676455,0.33674116378953,0.106261866234756,-1.20811934130824
580,580,7.09260328909891,0.558869048337203,1.00231640248259,1.2247281596173,0.142473519335299,-0.0587905312786468,-0.0969429008643783,0.273958547794683,-1.36704676737699
581,581,7.10527016150984,0.560451663157913,1.001616181292,1.25116785603253,0.145767286643372,-0.0681074066192244,-0.0773809129416919,0.276941868591185,-1.18779350989742
582,582,7.11858798872734,0.562181830763876,1.00078732748798,1.27905476472886,0.148794256002412,-0.0785361144481829,0.123650771326801,0.207694614644033,-1.10995666084394
583,583,7.13241152250957,0.563997720580327,0.999823572576408,1.31056231370808,0.152598540679772,-0.0881769024803644,0.391212219127376,0.162888830155076,-0.966435818701973
584,584,7.14659611063124,0.565857199203966,0.998761196300952,1.34206898642943,0.156170534580817,-0.0979661961507115,0.437728319306564,0.111954417361041,-0.933721137725199
585,585,7.16099556050911,0.567722878011123,0.997628968993145,1.36910267160697,0.15975799041927,-0.108658866058899,0.420613985606594,-0.145033246565752,-0.930517251084771
586,586,7.1754638310386,0.569561898902076,0.996448063841046,1.38924528525054,0.161598341100477,-0.121088946143825,0.454909732996151,-0.208397721222253,-1.10221692426836
587,587,7.19004421716439,0.571453903758805,0.995178739108846,1.40292139810681,0.158703956823106,-0.136298122620594,0.613509170383329,-0.0188715703142251,-1.27463904002775
588,588,7.20482829212113,0.573423654221312,0.993804071037508,1.41440403950357,0.149497708953667,-0.153676923729518,0.852102591141953,0.262820903497022,-1.60594612428488
589,589,7.21974630249182,0.575359225357062,0.992365574717874,1.42444360971887,0.136623542007099,-0.171437906926267,1.16691030544451,0.314147709660914,-1.52429335308366
590,590,7.23473343582095,0.577149063404076,0.99089375985844,1.43207595652238,0.126411835722454,-0.18838381784296,1.3971332096303,-0.0993688964045333,-0.995741406715899
591,591,7.24972966357563,0.578681773671426,0.989411554237826,1.43903149477489,0.121359288510768,-0.200681869735112,1.86315308489083,-0.693894469202781,-0.589763541339236
592,592,7.26478350060855,0.579805570966957,0.987889391942029,1.44115967742338,0.112384413397671,-0.209171291774268,2.649778829193,-1.00060335432863,-0.223946295408476
593,593,7.27994176764942,0.580596286722907,0.986296216104516,1.44876994372979,0.110192353564211,-0.212265515076861,2.51880602166846,-0.87809992455796,0.189857708909926
594,594,7.29514274008494,0.581283163133825,0.984654119432758,1.46681972863391,0.116281073579715,-0.209320964857969,1.67676969772927,0.107997260693321,0.296679960551808
595,595,7.31032326721947,0.582095669816703,0.982987051318294,1.48701122593441,0.106957438077473,-0.20147337000302,2.08795971816778,1.76385248595499,-0.552624118034008
596,596,7.32541963697782,0.583264189424234,0.981318604279934,1.49767469486366,0.0911074061936591,-0.191391434277378,3.54528854135862,2.5409764579717,-0.609033839388907
597,597,7.34052024121259,0.584731924656342,0.979491169118773,1.50345732334408,0.0925368188503236,-0.176105401961778,4.27705286589674,1.61897051857987,0.177836321806701
598,598,7.35566583535172,0.586346376279479,0.977493879121548,1.51486614654254,0.10348630637379,-0.152329430096335,4.11154434413002,0.577792481527382,1.53967580114627
599,599,7.37072185495074,0.588193315320204,0.97556819777,1.53621299583473,0.116227902188312,-0.119401676330385,3.27651993679305,-0.340252494967948,2.02689864313654
600,600,7.38555544419502,0.590355871976475,0.973952467088383,1.54813754522466,0.137681569230357,-0.0856029069142579,2.61036103752189,-1.09858979867498,2.32010836120379
601,601,7.4000353718246,0.592915095365501,0.97288155518609,1.54268017944217,0.173205061217375,-0.0596002356851668,2.05148522466106,-1.33019562302478,3.5185056933727
602,602,7.41411712239671,0.595982780490537,0.972433249133508,1.52689953233015,0.215995906632987,-0.036570565399116,1.23059730307221,-2.17444733639847,4.10239998764017
603,603,7.42788718372533,0.599500206844088,0.972454658789558,1.51473967812717,0.24665971078532,-0.0064280271932134,1.0573727385447,-2.07941529092573,3.67137005923457
604,604,7.44141232603545,0.603294547632938,0.972831586624385,1.50793326801418,0.259652832178119,0.0275116691808954,0.611323727570329,-1.62387242570913,2.97786717077138
605,605,7.45476116103312,0.60719579241257,0.973448031484085,1.49782147148614,0.280582123409934,0.0557162599629323,-0.876565963805839,-1.53340018468697,4.33416260552134
606,606,7.46800401908136,0.611035888233257,0.974186080271603,1.49314688535193,0.313253881687011,0.0768061790561625,-2.9468793791942,-0.654133321556562,3.03696167887287
607,607,7.48100696670945,0.614978598510019,0.97510801995302,1.47212812192032,0.363704980491074,0.0829395078517174,-3.93768521364562,-0.0547698257613358,2.25761005473888
608,608,7.49372506798352,0.619137467725814,0.976297896225647,1.43720934398292,0.383003603719445,0.0747796788982543,-4.28723929027052,0.632769539869754,1.84491470023087
609,609,7.5063621315675,0.623271175413759,0.977666966192664,1.40488172589859,0.370153023447322,0.0619390069991472,-4.20808618116495,1.95048711531574,-0.296382168246048
610,610,7.51912056653157,0.627139883435544,0.979123146804476,1.35963213320132,0.379036188509862,0.0493721320490612,-3.95727643650394,0.592597348092309,-1.1499305828986
611,611,7.53220117024185,0.630505198096978,0.980571240131561,1.31944295342775,0.38435353539282,0.0496256586929675,-4.03812142582113,-0.220818327415835,-0.671780839748712
612,612,7.54566891879398,0.633316577994108,0.982043271533049,1.31438905886258,0.335821740569168,0.0720323608808611,-3.57175240743316,0.791646155715714,0.118085708797451
613,613,7.55938652899682,0.635737389785246,0.983607095664225,1.32006144902355,0.272713427768791,0.107546171795068,-2.55715410486489,-0.167497607633187,1.59586191343885
614,614,7.5732512549967,0.637847589172954,0.985217174583043,1.3295500127994,0.216559894471177,0.148051973227823,-1.68225858919614,-0.631466778293818,2.58477868726235
615,615,7.58716159784831,0.639722943294443,0.986823871822855,1.33646566111882,0.168836867182901,0.18381242067636,-0.456966341424364,-0.0738065350021283,3.69797836027938
616,616,7.60101721113741,0.641436255265732,0.98837299027077,1.34404655858731,0.128130489878363,0.20598408124219,-0.586348436614589,0.642253962472173,3.07693930684222
617,617,7.61487625319121,0.642842296020831,0.989904262024746,1.35091773238039,0.115097222268268,0.214984161140322,-0.833373153155057,0.236205257346477,1.57383363596483
618,618,7.62880641812579,0.643887263144075,0.991453097816562,1.35225462553331,0.123775376370933,0.21654444750713,-0.173812490881686,0.0690700616779732,0.854260175265883
619,619,7.64272281228822,0.644781266149614,0.992955170426146,1.35232139566098,0.140565691455564,0.211613534579917,-0.410078263371209,0.280268539558969,-0.0859452272880953
620,620,7.65654117200589,0.645735542904989,0.994345404286894,1.35206515964995,0.154988716724738,0.200760551374782,-0.965767786822112,0.440586141677225,-1.650583749764
621,621,7.6701779681786,0.646961634173802,0.99555784936389,1.34601269711892,0.163382990413223,0.184169247515661,-1.40580900256936,0.561943771776734,-2.80249595826673
622,622,7.68371952680957,0.648493900644783,0.996620014283611,1.33311608128712,0.168384288582911,0.158459114099295,-2.10488648842195,0.603243605207518,-4.02189790989455
623,623,7.69722514310787,0.650189994125885,0.997576558200495,1.31355480226788,0.17059141414966,0.123254641428789,-1.90161969654628,1.11054538913649,-3.67994383442053
624,624,7.71057113300378,0.651996794052578,0.998386232825152,1.29212427216227,0.168903782925608,0.0840558032213056,-1.00972016747113,1.55291475335492,-2.9675604202216
625,625,7.72363362123692,0.653862195894601,0.999007329966455,1.27266880975496,0.162839019090967,0.0462740040891301,-0.458826569450944,1.44504703496633,-3.11088053453244
626,626,7.73628851721309,0.655735165245848,0.999397638645745,1.2535159308625,0.156237168575418,0.0157483257259913,0.371400226744532,1.00286059018911,-2.8547044810954
627,627,7.74827931139964,0.657590671225432,0.999524940188109,1.23425788656576,0.148253178989982,-0.00652401764635895,0.556230866060727,0.453780968428686,-2.49003347475135
628,628,7.75969203153248,0.659460505455118,0.999420486088087,1.21430415065177,0.138549495634707,-0.0247433998522056,0.384595892357949,0.13286676172887,-1.90779350978786
629,629,7.77091598263689,0.661383164389038,0.999135972601827,1.19735674291451,0.132188329686417,-0.0399908873802837,0.149223001514511,-0.0143255331989094,-1.59876197894707
630,630,7.7823399906122,0.663401728259157,0.998722340661417,1.18804975644225,0.131508872778597,-0.0534982266933513,0.133345196983352,-0.0986520412674184,-1.50926720163942
631,631,7.79435223506082,0.66556339049311,0.998230101310476,1.19250305061413,0.135769807975499,-0.0662384685401552,0.0919306835983454,-0.130228462328987,-1.36969381948949
632,632,7.80702552046666,0.667888004285396,0.997612215563425,1.21680906141975,0.142671470397537,-0.0769578057975552,-0.0879322352347341,0.0625215736569122,-1.59344679841399
633,633,7.82010180537518,0.67035108114002,0.996843794524181,1.2557298950223,0.150833133141112,-0.0844537458724532,-0.27683923075693,0.363841382908661,-1.43666472249861
634,634,7.83346993333226,0.672935196386222,0.996003074044255,1.2968680289388,0.156836770522643,-0.0904823824595306,-0.574242080704721,0.578912940713398,-1.14239608214126
635,635,7.84701641952359,0.675622632519246,0.995160207222141,1.32942583621357,0.158076832875437,-0.0979180703237069,-0.432513081317034,0.969546197326034,-0.688736853955196
636,636,7.86062705257698,0.678395878388958,0.994377048100091,1.34887088881768,0.154817832050051,-0.108314836515881,-0.0663623066395385,1.24510092434946,-0.507192585355288
637,637,7.8743275882603,0.681264824025415,0.993656237797641,1.35321020096931,0.147687159697823,-0.124093889070967,0.0366804768658353,0.998625844221469,-0.715348131898997
638,638,7.88818804229413,0.684246915694582,0.992951011154751,1.34497340805451,0.14223191193041,-0.143890498277575,0.313249400407849,0.720280300524183,-1.26253982366951
639,639,7.90216272318948,0.687332336222756,0.992240378817752,1.33380989796303,0.145531210758855,-0.162617523353702,0.766015762381068,0.439456954650474,-1.88726390959119
640,640,7.91620886246731,0.690506445523479,0.991499117770626,1.32655275919535,0.157334945701989,-0.176180370066504,1.6670443286397,0.508137441976915,-1.99242049336138
641,641,7.9302869976675,0.693750744163158,0.990698330564985,1.32214137602566,0.172116382785519,-0.182713102654674,2.32990665896957,0.762733517810964,-1.38314911782087
642,642,7.94439488251901,0.697095622976061,0.989817456127097,1.32431616799259,0.181032546780119,-0.181260454686823,3.46401230376811,1.26566910582635,0.313469738951802
643,643,7.95856168131649,0.700548002271182,0.988866813349587,1.32961409304554,0.197227973208469,-0.174376624633273,3.42353855638055,1.01449877660231,0.676223240021902
644,644,7.97279864871039,0.704054083906433,0.987859133067969,1.34571257478289,0.212231491248776,-0.162037978517779,2.25286838064813,0.987846003838346,0.82388886577966
645,645,7.98711838695152,0.707562288949984,0.986804842596498,1.38018092099501,0.214460789121543,-0.143112545252655,2.70536731871147,0.628725944500912,1.08449350006004
646,646,8.00153392030253,0.711022170164519,0.985714151082748,1.41336420231199,0.219512733245449,-0.12625313862869,2.68252629753806,-0.549867300374813,0.705482324930632
647,647,8.01601358808604,0.714473756645855,0.984550798383166,1.43427103479506,0.236687583291673,-0.114289533623327,3.27337887269922,-1.10278350751668,0.169775182951274
648,648,8.03055000370996,0.717949236303592,0.98330822253023,1.4523717828624,0.250024176093075,-0.102138589245267,2.8754157640733,-0.21484100438161,0.20233528584274
649,649,8.04519151010961,0.72138749956462,0.98204281610662,1.46871365775563,0.255637442913216,-0.0888850641854023,2.05113097416543,1.17896690800966,0.00593803417798963
650,650,8.05998809772377,0.724731163494914,0.980806404937562,1.47897515649173,0.260009377117704,-0.0750002021834531,1.76283126102146,1.95368345287788,1.26042390254243
651,651,8.07499228921581,0.72792653863809,0.979644011290893,1.49551887708552,0.264391029256087,-0.0561062038150201,2.07325025720226,1.8984178170138,3.02461650867649
652,652,8.09043574389046,0.731101303851175,0.978448942575481,1.54079176744,0.259890284017021,-0.0301185807360832,2.33195934453255,0.18440795822022,3.24296298870565
653,653,8.10628245453041,0.734294920894601,0.977193738876348,1.57097202496512,0.242002674604398,-0.00958474990906054,1.76870923177896,0.109672078426616,3.66899083148712
654,654,8.12218544616116,0.737321561502059,0.976037757341918,1.58660895222233,0.203291187285717,0.00706869379724708,2.10675132627298,2.44399668343315,3.9884496867743
655,655,8.13779930101439,0.739994432289977,0.975138887150262,1.59800394720729,0.181112902826086,0.0247235334611114,1.33278829507012,2.25093003623202,1.04802748843222
656,656,8.15278018561959,0.742125870123908,0.974653018467107,1.59435880077218,0.192617905687073,0.0389832587872406,-0.392825767757237,0.20709709268882,-0.93504261769229
657,657,8.16694083225916,0.743488076753054,0.974649606419032,1.57183002545309,0.167305145585444,0.0436507738810503,-1.07517709441928,0.54688676921664,0.555326999504784
658,658,8.18051209486551,0.744205383006896,0.975027607254218,1.54069849755354,0.12392401617008,0.040015954492153,-3.55949843598752,0.288302523706291,0.54135783046114
659,659,8.19377833366959,0.744616145999356,0.975684501405362,1.50636899640795,0.0656657833872216,0.0333974070798319,-5.26206310619627,-1.35036499674031,0.778022213934658
660,660,8.20702365441622,0.745057497043648,0.976516343319778,1.45987759362107,0.0304048150259294,0.0242794126610516,-4.81605840936238,-2.31461838307958,2.16669157670027
661,661,8.22053138716424,0.745866256425773,0.977418259263532,1.40519768806224,0.0214977106681217,0.0179967555463237,-2.89963691405764,-2.29096781268395,2.2990683794277
662,662,8.23441671939324,0.747004832095636,0.978402916870981,1.36548663758045,0.0180287448905402,0.0215404544586735,-3.10417937986647,-1.27619986533068,1.92563398405582
663,663,8.24849059873253,0.748246040619383,0.979544476052669,1.33897476112834,0.0257822762538659,0.0337970523216903,-3.83172621225273,-1.74689190509614,1.58457807753988
664,664,8.2625781220427,0.749644771856568,0.980828052999592,1.32151135591455,0.0459131346472885,0.0547886004581256,-4.45928614191965,-1.57130743102924,0.862471392207466
665,665,8.27650312268057,0.751258099128259,0.982235883334116,1.29784911345686,0.0760834731464319,0.0773485394419897,-3.00227589924782,-1.06884990665895,0.52383355675547
666,666,8.29008860690863,0.753144344839329,0.983747304310252,1.27313535806825,0.112202182020093,0.0950830499591717,-1.46108523089894,-0.602663300980133,1.10065957715082
667,667,8.30324088305705,0.755384399483181,0.985443937987052,1.25624357990489,0.152402318934918,0.114872163919652,-0.894123158984652,-0.305641292846175,1.1180717849501
668,668,8.31607431512943,0.757944830644417,0.987342113074969,1.24684582852547,0.191112129559243,0.139734647200616,-1.4816400820387,0.153514631770555,0.170543652272728
669,669,8.32872485985061,0.760710496252641,0.989319246402021,1.23300875944271,0.220592939000858,0.164013336933852,0.0476174885646462,0.590088502618508,1.92701077829373
670,670,8.34133020485068,0.763563382593875,0.991249928571085,1.22640608899803,0.237642371017583,0.18451931684659,-0.450885131263313,0.206029077856585,2.03544966290639
671,671,8.35403000786823,0.766382905137541,0.993005942777676,1.22968928274728,0.24098652659742,0.195997438223794,-1.64912079011852,-0.197566649913008,0.648859358991162
672,672,8.36687682508525,0.769249527375831,0.994626580603709,1.23860748469397,0.22892291468931,0.195806732700388,-1.92745905190557,-0.618881337485995,-0.690230048687912
673,673,8.37978125132979,0.772241299813219,0.996196870284003,1.25241611891391,0.201496067342728,0.186615986501457,-1.77101939546567,-0.614868133258542,-1.27814193180715
674,674,8.39267114160843,0.77523344917226,0.997655062810836,1.26703035329364,0.16954779998555,0.171123620741242,-1.51895356648537,-1.07421292342551,-1.77869540761027
675,675,8.40547383479546,0.778102555590317,0.998938842989144,1.2777175121905,0.143600047541265,0.151569788177914,-0.93774003690802,-1.33762611643633,-2.18415947802953
676,676,8.41811602497678,0.780726569702499,0.999985085938151,1.27976789019796,0.128343111326398,0.13133302282434,-0.381793649499212,-1.70101103575428,-2.5498269045478
677,677,8.43055547110511,0.783042089542188,1.00078005035326,1.27095902154113,0.120094853953858,0.109063707925957,-0.0362846352512781,-1.82059739004038,-2.72843043168347
678,678,8.44284418434591,0.785133740979163,1.00136813922401,1.25367946830431,0.11733326635679,0.0829138378533895,-0.0638028874202211,-2.00313981567711,-2.89275843393645
679,679,8.45504983935592,0.787100587497296,1.00177222872486,1.23212995956665,0.119791700004437,0.0552364108071748,-0.0545334192350879,-1.88183017237066,-2.74844962345868
680,680,8.46724039698696,0.789039018563648,1.00201446873741,1.21175925537777,0.126126345426652,0.0285476165496882,0.0510692500552624,-1.66926086613895,-2.56689504805214
681,681,8.47948406661442,0.791042753556603,1.0021163864598,1.19788638950101,0.136112989850861,0.00560070794011952,0.233995942212191,-1.18606249005633,-2.16092763712043
682,682,8.49166383437669,0.793118342363979,1.002068007109,1.19460984129655,0.150329710054119,-0.0121690306473191,0.39150457659228,-0.521492063545781,-1.72228159648585
683,683,8.50373682735733,0.795200485171376,1.00186027144294,1.20070453828267,0.165559938244147,-0.0260342310897619,0.211154003221567,0.513857430681371,-1.59140099689607
684,684,8.5158817996488,0.797272756305728,1.00151433264037,1.21466910750195,0.179983346731857,-0.0380123500908418,-0.0569156302863295,0.983698889960059,-1.41778619805952
685,685,8.52827659938372,0.799318072779082,1.00104932196295,1.23233963611234,0.191440672207176,-0.0498457061696283,-0.249526279225997,1.16670223614139,-1.49994791444543
686,686,8.54109834938553,0.801318689742381,1.00048214662667,1.25077021872017,0.197080480916669,-0.0631400927146274,-0.177965256129262,0.983552554674992,-1.31703975571574
687,687,8.55441368272139,0.803234934018352,0.999807244545047,1.27225369524381,0.195404996915816,-0.0776537422189893,-0.325301716733779,0.580953988353785,-1.35705871740439
688,688,8.56810224494168,0.805072395295506,0.999020176013524,1.29776776620756,0.190440791927564,-0.0922687215641275,-0.287717469252155,-0.00834714233950289,-1.21063527344484
689,689,8.58205888926874,0.806883200837001,0.998132026626851,1.3241038199122,0.184053142314973,-0.106925225616852,-0.157573886991591,-0.272712098798576,-1.23796011884611
690,690,8.59617813164996,0.808723024141892,0.997145465138303,1.34656247639665,0.177988292314674,-0.121488715758531,0.358343815396827,-0.470026675395912,-1.20750477682939
691,691,8.61035578619044,0.810651083445658,0.996055003351335,1.36356479535394,0.171432359732475,-0.135750189906556,0.319335268176635,-0.474170338337462,-1.44815277588903
692,692,8.62463665462523,0.812760337055966,0.994803681387838,1.37693581483543,0.162270416458664,-0.151244059827072,0.854443107213281,-0.232045967981845,-1.84529936260304
693,693,8.63908723126934,0.815013089148255,0.99338823242089,1.38823744937279,0.150293140781848,-0.168952213606288,1.50246690731414,-0.000372132835751567,-1.82129559595986
694,694,8.65363975817341,0.817275718248409,0.991871883055269,1.39531580513952,0.144128078674694,-0.186864779157422,1.85921679688568,-0.189876435135934,-1.46740627398734
695,695,8.66822968625427,0.81941569543439,0.99030993539842,1.40005925106262,0.143744732881822,-0.202006621132634,1.81540011654514,-0.536450406227776,-1.05346587499063
696,696,8.68279525921048,0.821301237590015,0.98875293598629,1.40117581456657,0.143744835487872,-0.211989821255042,2.1310862176516,-0.880216973978622,-0.381549438081332
697,697,8.69736614081127,0.822804866231001,0.987148430442188,1.40304924796007,0.150341741298822,-0.214539413511115,2.36823574678317,-0.738479324994223,0.148320602094952
698,698,8.71198927750543,0.824016129319941,0.985451745389785,1.40823800595446,0.168799051149782,-0.211502496404311,1.70122917556742,0.3172006124949,0.582995797465671
699,699,8.72662844710339,0.825128477350727,0.98372739129785,1.42127756057059,0.172747643512403,-0.201920104412727,0.876292973089468,2.02493415875175,-0.231212462529582
700,700,8.74124593612032,0.826335882716248,0.98203969882584,1.42924649178908,0.1606082855887,-0.188047184486544,1.75161546633221,3.09063934936259,-0.119954614127686
701,701,8.75580346139181,0.827833469169553,0.980450214675834,1.4275284566395,0.154117246274573,-0.172395486903767,2.82464184810976,2.58880250345182,1.22145192906457
702,702,8.77040666217323,0.82953364191224,0.97882682566863,1.42872381825799,0.151705470444391,-0.151283139303954,3.53000398004083,1.52508796353972,2.20070561313377
703,703,8.78507911599593,0.831306674919321,0.977131974017469,1.44456744841122,0.147753283865677,-0.119465094131767,2.54745236708349,0.90771244892664,1.83324317987239
704,704,8.79966028146009,0.833284351857611,0.97556571035175,1.46310939880781,0.14827416363224,-0.083296891597721,2.02999976604703,0.173443086700447,1.66508888083935
705,705,8.81399129776892,0.835597342880085,0.974326306299773,1.46733301008043,0.158440631003116,-0.0485057521259279,2.36880218735994,-0.460796873953197,3.01924996798912
706,706,8.82791481659957,0.838375817143114,0.97361013778338,1.45369243484036,0.184709761977441,-0.0170700715589982,3.00824631413025,-1.1320283788681,4.06757331835677
707,707,8.84133427163441,0.841716260827424,0.973514454671609,1.43458451372824,0.229663686274962,0.0097616166923749,3.42669838622942,-2.04220875073079,4.3485054602411
708,708,8.85435480930438,0.84553000905504,0.973912490141901,1.42141986326728,0.255716513112829,0.0411663151079405,2.47989176181541,-1.7653490412518,3.27836630694392
