,Frame,CoM pos x,CoM pos y,CoM pos z,CoM vel x,CoM vel y,CoM vel z,CoM acc x,CoM acc y,CoM acc z
0,0,-0.14658221415435,0.118239969392549,1.0021396111897,-0.00833227201073711,0.00101948232311464,-0.00372332109255201,0.00440982751390765,0.00414711920958348,0.012285090216403
1,1,-0.14682935398669,0.11835255340629,1.00218159749627,-0.00815063792402943,0.0017328037974772,-0.00332017067532357,-0.00232275748424336,0.0901006675886559,0.0324537635102778
2,2,-0.147079870897631,0.118463022799681,1.00222680581145,-0.00803357922930291,0.00276549036125637,-0.00288199337365379,0.00359090235845213,0.0918352919606955,0.0376049451415519
3,3,-0.147328733662924,0.11857455067623,1.00227041707143,-0.00774082486963129,0.00398761318409991,-0.00246775210979035,0.00650494936812553,0.0957547628036313,0.0597842272316685
4,4,-0.147570906697414,0.11869031014349,1.00230760979116,-0.00737501388425011,0.0049655874898096,-0.00209379515120804,-0.0066250000400495,0.138079624123412,0.0473151147975265
5,5,-0.147801350660571,0.118813474388698,1.00233356073814,-0.0072483810897609,0.00601718396633489,-0.00180523783352854,-0.0236325321244982,0.15025827918612,0.025266104675833
6,6,-0.148013484621167,0.1189419547424,1.00234752975057,-0.00771604254664341,0.00683288690866032,-0.00154104536918103,0.045894206799391,0.167281191463025,0.0451765962981448
7,7,-0.148210661583165,0.119073636823664,1.00235273047579,-0.00842256190697511,0.00788180870108799,-0.00127293070421759,0.0721969837619054,0.112679818357376,0.047101687284329
8,8,-0.14840274161136,0.119211654260417,1.00235026991295,-0.00893835383803007,0.00827607549366065,-0.00108371662685728,0.0402800468508895,0.183368291530199,0.0204545199337517
9,9,-0.148599585095424,0.11935913903405,1.00234125470692,-0.00946774054748958,0.00900622143636555,-0.00106086167962966,0.0391216954180678,0.171691035062904,0.0209158844199589
10,10,-0.148811052428659,0.119519221551775,1.00232679082957,-0.00984792539986866,0.0105145243100097,-0.00128054706827944,0.0281714023233638,0.170833252603495,-0.0248265837785744
11,11,-0.149042541701909,0.119684683262614,1.00230897790482,-0.0102400726455738,0.0125515150090766,-0.00192897923421721,-0.0193947890406311,0.166387112625257,-0.0210133742671737
12,12,-0.149287475378353,0.11985343490332,1.0022870802567,-0.0107703649936249,0.0146301634041522,-0.00296731541086907,0.0463102096424,0.121750413792158,-0.00652104198333617
13,13,-0.149537751967861,0.120036299990336,1.00225794888128,-0.0109297477037775,0.0161137241537372,-0.00407911952050468,-0.00453312577416718,0.220112842972058,-0.0706895506512081
14,14,-0.149785272960345,0.120244102297059,1.00221843265871,-0.0109227142243041,0.0177478157192596,-0.00499904452242611,-0.0253112352317114,0.255568648338906,-0.1085946070556
15,15,-0.150021943510678,0.120487665350582,1.00216537824409,-0.0109184756263493,0.0198492134146865,-0.00546767927160827,-0.0219418437896845,0.222932334736836,-0.0750321884638318
16,16,-0.150250385233254,0.120776908050285,1.00208934559609,-0.0113848711551664,0.0229873655802948,-0.00531687717737158,0.0425141727232646,0.241459497795533,0.060179842552711
17,17,-0.150476003883801,0.121104610229581,1.00199243423491,-0.0117772812762213,0.0262788539447759,-0.00471591045372039,-0.0141959035076911,0.243364008831974,0.084616329993994
18,18,-0.150694882117437,0.12145588810257,1.00188879963786,-0.0119070897745761,0.0288157973096626,-0.00390179520775823,0.016732263044843,0.297284573650014,0.0849092869560336
19,19,-0.150903099102792,0.121815860783097,1.00179259905692,-0.0120049879197543,0.0311894655314518,-0.00309934416438968,0.0172103297869559,0.26187730212295,0.0899188689857915
20,20,-0.151096729210106,0.122169650160729,1.00171799149163,-0.0122675731824089,0.0330623436385975,-0.00252988026504932,0.0220831333985996,0.24991448494125,0.0866593111679469
21,21,-0.151270324370335,0.122522416976043,1.00166941247987,-0.011888232769331,0.0346503542777199,-0.00218947524445599,-0.0112372810316502,0.204368898630908,0.124539495385068
22,22,-0.151426507155695,0.122884079469668,1.00163742685916,-0.0110199275653838,0.0354114432430872,-0.00190864076137752,-0.073716479308848,0.246783756981092,0.0913640525491851
23,23,-0.151573448033198,0.123246898231654,1.0016153866163,-0.0107378613925117,0.0359540346521865,-0.00173951237585935,0.0101044427703471,0.192634126873888,0.0684599723012288
24,24,-0.151719309964464,0.123603134985609,1.00159664157839,-0.0101305864234658,0.0359983758051132,-0.00173834989107296,0.0414651911233083,0.196658396733178,-0.0285843449637672
25,25,-0.151872249892168,0.123945053926058,1.00157454029824,-0.0101936741570123,0.0361904354132093,-0.00198431298168847,0.104120702905673,0.10896127641761,-0.0660266987294544
26,26,-0.15202340206973,0.12427633889796,1.00154971105814,-0.0104393474542838,0.0361407043540472,-0.00261988215498643,0.0898191071979592,0.0970325810320841,-0.0778288432092767
27,27,-0.152167318216067,0.124602150704926,1.00152659115006,-0.0108407684003306,0.0355712919091678,-0.0036248175499545,0.11554258994552,0.102847363341093,-0.0826195339899091
28,28,-0.152317280146465,0.124916974378741,1.00150424308544,-0.0114467699678715,0.0339741551317152,-0.00472258659309072,0.0619735589829867,0.151619219776335,-0.0930809114715965
29,29,-0.152486572267118,0.125215299328321,1.00148173004287,-0.0124778431943358,0.0330888524409714,-0.00572143956573745,0.0961975028525185,0.0987417164509162,-0.066902104759329
30,30,-0.152688481766284,0.125491621699676,1.00145811564714,-0.0136806885071646,0.0311306288754912,-0.00634299087329246,0.106735596459528,0.189021313184959,-0.0931331763175235
31,31,-0.152939509376008,0.125740250990584,1.00142874078765,-0.0153252490133423,0.0286925208715724,-0.00651223307861085,0.10668796836761,0.163071824330508,-0.086734452117726
32,32,-0.153230804369873,0.125964889661758,1.00139423587309,-0.0174828581817063,0.02652502597146,-0.00638805381691383,0.102731896783784,0.104419133052373,-0.0295282600520197
33,33,-0.153537625246291,0.126174126471541,1.00136160587768,-0.0196137971244075,0.0240148968012407,-0.00609282331180666,0.0465717018890714,0.0815042675141427,0.010086296121198
34,34,-0.153835222871276,0.126376544041019,1.00133786686996,-0.0212583786676656,0.0213354470422388,-0.0057479281717212,0.0309248861551397,0.0619173579087916,0.0485376848734214
35,35,-0.15409883938958,0.126580714731477,1.0013300481391,-0.0217786255334825,0.0193442678038604,-0.00547029778963464,0.0380588467689689,0.0304281462817706,0.050567553207266
36,36,-0.15432825992351,0.126784553698973,1.0013480611765,-0.0210837660806999,0.0184773871941985,-0.00521420003459875,0.0341464887586076,0.0113776860476035,0.112430432443362
37,37,-0.154539984791704,0.12698237552757,1.00138727436852,-0.0194289350635146,0.0176761565522928,-0.00488009655692457,-0.0126844887923767,0.054450886517433,0.062852183553014
38,38,-0.154734324143486,0.127177326562834,1.00143290430386,-0.0169608312767969,0.0167347090433927,-0.00453954824515128,-0.103790545544559,0.130132092844638,0.0467819811181957
39,39,-0.154911589020285,0.127372534423371,1.00147015259278,-0.0148803981586494,0.0158891115886896,-0.00426011296760695,-0.205547378924709,0.178748201100241,0.0138573123065994
40,40,-0.155072091860507,0.127571108252862,1.00148420332755,-0.0128497311053452,0.015438871344853,-0.00409756432757194,-0.272500036804813,0.158707069570858,0.0139767426452648
41,41,-0.155214703899028,0.12777377931452,1.00146973376652,-0.0122818911844848,0.01576233055579,-0.00421699071635903,-0.189136442318318,0.146161010266178,0.0159892304419533
42,42,-0.155339219580016,0.127978456735305,1.00143667224511,-0.0129110161747131,0.0165929242055585,-0.00456542096644488,-0.000333820453091848,0.134452531529404,-0.00160239535832111
43,43,-0.15544733816788,0.128183994087316,1.00139302947917,-0.0138588339129685,0.0170070657666462,-0.00494059145664432,0.103090957949937,0.191018192115271,-0.0157730765542901
44,44,-0.155540758876843,0.128389235302179,1.00134676560615,-0.0138997121254705,0.017306348660153,-0.00516690825409629,0.0911360739560231,0.124591493611643,-0.045927415394475
45,45,-0.155621180272753,0.128593018981422,1.00130579340791,-0.0129559583423697,0.017361198875482,-0.00505980215550493,0.10635087369237,0.0756552119407637,0.0308393424705605
46,46,-0.155695280741876,0.128779850884683,1.00126783044257,-0.00968060708796984,0.0170892722120862,-0.00453025287522744,-0.034253022794445,0.0827274543095541,0.0178240106000775
47,47,-0.155761937130194,0.128950469442614,1.00122753819992,-0.00527612625919171,0.016982854181905,-0.00371485428386677,-0.0296273571432317,0.0350689572304772,0.0563828895566363
48,48,-0.155811141900675,0.129128071065673,1.00118822184135,-0.000682268413895269,0.0172230292059168,-0.00270398121592413,0.0111340812364651,-0.0253235623221707,0.099139721985141
49,49,-0.155832883809823,0.129335863525897,1.00115319518305,0.00356516297999164,0.0181168132836229,-0.00158673178347815,-0.0059999668166288,-0.021386403966923,0.136876284156308
50,50,-0.155817146517173,0.129597062548422,1.00112578014209,0.00599304871509818,0.0200101325966961,-0.000478896402357207,0.00728862970110787,-0.0487250638137813,0.235945147441049
51,51,-0.15574373809706,0.129923866676852,1.00110845272508,0.00794257551314487,0.0233107881359529,0.000801355437105842,-0.0407530240125265,-0.0440244115163896,-0.0342959438930582
52,52,-0.155619331921094,0.130300804219761,1.00109897765502,0.0092170523929226,0.0276642329514104,0.00237722038002365,-0.0382777054413917,-0.0270513267014226,-0.170925531317277
53,53,-0.155474204503784,0.130709586645483,1.00109361901155,0.0105468670407107,0.0322192983496083,0.00393645740449555,-0.0858511680354636,0.0211781479799882,-0.233751509171789
54,54,-0.155338633813119,0.131131920088199,1.00108864101625,0.0117399898212632,0.0349991241176946,0.00520626584173131,-0.0760025178712192,0.095686687570026,-0.19198694582447
55,55,-0.155242899363016,0.131549505683956,1.00108030614909,0.0124461177205076,0.0372087121790731,0.00579829968255941,-0.076213842615983,0.024002409525366,0.0659482791106031
56,56,-0.155193757626647,0.131969709383905,1.00106921586921,0.0126137408721625,0.0375747598191117,0.00551628341287279,-0.0457722886280323,0.00148827774753431,-0.0125770887594038
57,57,-0.155171010952584,0.132404727559257,1.00105785629013,0.0118522386396745,0.0364457705287458,0.00456431885567574,-0.0419525176898891,-0.0550625515556726,-0.0641483850574982
58,58,-0.155164515825617,0.132843506192841,1.00104531980539,0.0102255482987178,0.0351770661714304,0.0032673972480132,-0.00531175892945693,-0.094229192965199,-0.0448555975237645
59,59,-0.155164140021968,0.133274991354033,1.00103070107957,0.008378519128544,0.0347454606294426,0.00197750089714211,-0.0179390570326483,-0.180273448874508,-0.0215495235396819
60,60,-0.155159763314377,0.133688127435725,1.0010130962464,0.00655034043234151,0.0343502735552141,0.00106717063940835,-0.062151727371698,-0.130533695560058,0.0185613885569312
61,61,-0.155153044377374,0.134076667882232,1.00099783237644,0.00463573142605694,0.0343870247382132,0.000754529841785568,-0.11327530625647,-0.0818528407999496,0.000807003964510211
62,62,-0.155150745484054,0.134447981350991,1.00098551059688,0.00216220025856935,0.0342594679049548,0.000821792351415575,-0.195211234854247,-0.0985137712999521,0.00431386422049663
63,63,-0.15515040945325,0.134811428826056,1.00096814823562,-0.000650231008623786,0.0343472825862956,0.000877901959446364,-0.0982388380930085,-0.100712462211659,0.0421862875968803
64,64,-0.15514957915061,0.135176362252339,1.0009377781057,-0.00313558494281936,0.0340447460756889,0.000664572725232423,0.0112832905898158,-0.0550817202550343,-0.00279451888836824
65,65,-0.155145800600706,0.135552116039445,1.000886473655,-0.00446075309487356,0.0337578019893911,-0.000175558462482249,0.0852463281116728,-0.0147001475043955,-0.117101871281038
66,66,-0.155139813136962,0.135954039743374,1.00082217817992,-0.00429649578821397,0.0343422329402719,-0.00162940274088229,0.15855430357029,-0.0478777609375654,-0.147600411076999
67,67,-0.15513327150873,0.136375851068907,1.00075028462759,-0.00283267285638794,0.0353323433212207,-0.00345029140531841,0.0991277999906734,-0.02583253093063,-0.170188350341854
68,68,-0.155125115383353,0.136794405299078,1.00065915719333,-0.000886219243623766,0.0355864582977475,-0.00567753121942233,0.0391927714580353,-0.0047409436718818,-0.137567494762175
69,69,-0.155114306655777,0.137186543494845,1.00053726569314,0.00163975649400489,0.0343002867262628,-0.00833585428088608,-0.151422864675577,0.0859029905534712,-0.276503005604476
70,70,-0.155099832116734,0.137529098540421,1.00037323198221,0.00277376040881719,0.032474410311329,-0.0115433074996318,-0.136245613811115,0.0213505307868673,-0.292680526579239
71,71,-0.155052658007942,0.137851216863788,1.00014246377813,0.00295167509746856,0.0306941865090753,-0.0159321605046082,-0.152820245270538,0.0251593354192373,-0.355747950474591
72,72,-0.154973594770642,0.138168171207061,0.999853314831304,0.00216339470907878,0.029043217386806,-0.0214474608248564,-0.0547851863852301,0.0453272000768606,-0.404118386193212
73,73,-0.154906391930641,0.138436043183513,0.999543935016603,0.000868684466730369,0.0265747341902433,-0.0270909172672726,-0.02358786710148,0.0438802079089747,-0.468251107575403
74,74,-0.154894754123203,0.138611013937476,0.999252388195978,-0.00127834992917293,0.0221157770211489,-0.0319796990013078,0.115704881552916,0.174873684877103,-0.508597072302184
75,75,-0.15498233923378,0.138649397616235,0.999016622944681,-0.00422574827994623,0.0145757143493798,-0.0352078638923481,0.199574691428391,0.229858555768431,-0.455481541307934
76,76,-0.15520646403849,0.138506783832787,0.998840219084131,-0.00801146922013132,0.00382315005124451,-0.037157017460881,0.226541014015505,0.30749519693324,-0.441045948703149
77,77,-0.155538142710107,0.138212504270012,0.998698927886744,-0.0140799302863473,-0.00991869100065102,-0.0385455440865264,0.308618314599355,0.320496975469971,-0.259370027172685
78,78,-0.155921502750391,0.137833623799468,0.998588647946835,-0.0203810854683415,-0.024419689935854,-0.03862945113916,0.150036747211999,0.270253595980657,-0.0300446359139878
79,79,-0.156300586765683,0.137437200759572,0.998504958960723,-0.0266706849527542,-0.0393371686806242,-0.0367928765098759,0.119655110652384,0.214736827068222,0.260519046708519
80,80,-0.156619341312513,0.137090259154186,0.998443087119092,-0.0316382899552029,-0.0510583830129175,-0.0324503028063278,0.0279095841586488,0.00151341960849576,0.525618394503962
81,81,-0.156883443191887,0.136767120560008,0.998396310156014,-0.0355869926708027,-0.0587783813680092,-0.0245520623727148,0.0142775191493173,-0.263406082357529,0.819960093465705
82,82,-0.157130177091995,0.136423453188774,0.998368454927889,-0.0382791224374015,-0.0647734582622552,-0.0135117427873411,-0.132602902319306,-0.408590863437843,0.922225406280435
83,83,-0.157350776182214,0.136098191242131,0.998369862236865,-0.0398072574946852,-0.0695279666122439,-0.00122087163624119,-0.179935971616422,-0.453742420539731,0.883880403928031
84,84,-0.157536420681012,0.135830156355547,0.998410274998795,-0.0410649560612502,-0.072175541004307,0.010344114549842,-0.0750108741912651,-0.564532555599101,0.825802674223775
85,85,-0.157678267855512,0.135658042201975,0.998498849710746,-0.0420645189449604,-0.0721442414076101,0.0191036527106541,0.082544817724789,-0.656869939204258,0.738569929116132
86,86,-0.15774994465919,0.135608270342969,0.998648631549477,-0.0415186597578685,-0.0690296873893883,0.0248185659243532,0.177998856721961,-0.724387140240194,0.527883167038456
87,87,-0.1577571325145,0.135655119668668,0.998852844238862,-0.0397181122470847,-0.0632474598193409,0.0288329928902631,0.296491588919838,-0.719285988644004,0.377214003454237
88,88,-0.157739111778201,0.13575890614168,0.999090289011282,-0.036626182255008,-0.0569008865220677,0.0316707469176399,0.220696111434369,-0.693432575805947,0.186182820383427
89,89,-0.157735214895511,0.135879862922133,0.999339523414836,-0.0335961431413208,-0.0509245648160665,0.033778171155508,0.173992034166931,-0.633381391711303,0.119084351427201
90,90,-0.157784821936633,0.13597814919876,0.999578916770389,-0.0319277530965237,-0.0457594316038118,0.0354894287555725,0.201842926831453,-0.618184862104669,0.122280175685788
91,91,-0.157897983867968,0.136080983524294,0.999819631277482,-0.0308867952916537,-0.0403464771609706,0.0369418753950295,0.115432376034314,-0.568390884183119,0.2085977690148
92,92,-0.158048439753178,0.136214787816711,1.00007507788931,-0.0303637076580598,-0.034694846849847,0.0379078898361066,0.0501084600289853,-0.4696646010394,0.176412636220542
93,93,-0.158221158360826,0.136338431906861,1.00032690211278,-0.0291891035527802,-0.0295460923731733,0.038226291705505,-0.0334644052333382,-0.384035890014178,0.145322410519392
94,94,-0.158401132386546,0.13641074297189,1.00055678904879,-0.027449815394014,-0.0259039593734731,0.0376939531020214,-0.104664390202971,-0.31344473410833,-0.016856859694189
95,95,-0.158573366816918,0.136390527246117,1.00074649335274,-0.0246938939203535,-0.0236295015734592,0.0360214997451241,-0.153597027893632,-0.249325984434556,-0.146454218469641
96,96,-0.1587443366495,0.136262262715295,1.00089344322755,-0.0213605540614839,-0.023527150460778,0.032625992620286,-0.144248968032159,-0.299006222464216,-0.274113040607822
97,97,-0.158924101136027,0.13605324035041,1.0010093791864,-0.0175027943808463,-0.0243071350490489,0.0277221610071894,-0.0665618296197565,-0.299954914139412,-0.362429895138073
98,98,-0.159103043473924,0.135786462153455,1.00109766341572,-0.0137840504342573,-0.0258270803582308,0.0221528616929639,0.0569650332226601,-0.24350889849395,-0.309280834761039
99,99,-0.159271535984146,0.135484938680749,1.00116174538887,-0.0101055430839016,-0.0277988779259139,0.0167680024778617,0.000919178683369168,-0.134168728430469,-0.323774350444993
100,100,-0.159419926841299,0.135171732264001,1.00120515112962,-0.00718388387512751,-0.0289018930409217,0.0124556664839832,-0.0426221870156723,-0.1304042385857,-0.302705723358031
101,101,-0.159549098074678,0.134849499057349,1.00122508247257,-0.00604022509174059,-0.0286342903337526,0.00907600324529996,-0.0156648462838899,-0.0833231203508523,-0.243845220198407
102,102,-0.159665414486246,0.13450303616218,1.00121955588067,-0.00595366958151521,-0.0273675985383282,0.00624814487434121,-0.0548039272075242,-0.200220523134714,-0.139802617500111
103,103,-0.159767431753955,0.134128660356002,1.00119337320558,-0.00653262007713368,-0.0257948587142295,0.00386336395753588,-0.0332365732513789,-0.145052308196319,-0.0527495373356862
104,104,-0.159853744922721,0.133722596040783,1.00115129103393,-0.00720437144215825,-0.0246158797708538,0.00200029274017286,-0.0501147040308319,-0.143250179994815,-0.0772401295063505
105,105,-0.159923008640308,0.133280918290811,1.00109797271899,-0.00766890739808174,-0.024861801627104,0.000557193864146988,-0.0788894506460961,-0.052539401376471,-0.101167067650891
106,106,-0.159979599825961,0.132812963216808,1.00102895236725,-0.00782821598777825,-0.0256400936460784,-0.000482496456146693,-0.0730908700831689,-0.0720009470216272,-0.0914437619795738
107,107,-0.160024381939093,0.132321552447467,1.00094184239951,-0.00772927672535326,-0.0269022383784189,-0.00107959668190688,-0.044725470722056,-0.0558568337853233,-0.0484561722609366
108,108,-0.160050816881826,0.131792764351528,1.00084417968302,-0.0076236758067135,-0.0295232668979071,-0.00114520280160574,-0.0421196917369309,-0.0831796780984137,-0.000609175469100151
109,109,-0.160052401903991,0.131212536208172,1.00074324968814,-0.00769285061965947,-0.0327540473822161,-0.000718878971362923,-0.0834069100532261,-0.0513470306113712,0.180917674502609
110,110,-0.160022666751254,0.130566657101744,1.00064604798453,-0.0078715271786045,-0.0364657482838219,7.31518605734718e-05,-0.24085867336883,-0.0292640014573138,0.293709799029374
111,111,-0.159939572085631,0.129829800611778,1.00054211809175,-0.00758331646308543,-0.0412240434961589,0.00158178909467255,-0.473852580142939,0.031466132251925,0.296807148555929
112,112,-0.159807507530764,0.129011215680181,1.00042700677709,-0.00764734709286758,-0.0466292844098979,0.00363525852405876,-0.561188799304756,0.0186137988290479,0.245108780419825
113,113,-0.159659645796548,0.128148564403059,1.00031642997843,-0.00777722072760919,-0.0516263841103335,0.00582027101705954,-0.568526822795364,-0.118929457046963,0.18593076767854
114,114,-0.15952913005815,0.127279675727877,1.00022603240509,-0.00939681501718994,-0.055983454373345,0.00764188021698649,-0.430952319229745,-0.268932931822674,0.245181147749417
115,115,-0.159449062872377,0.126442572919031,1.00017139377868,-0.0120051971307156,-0.0607703144386497,0.0087677952001141,-0.285238827572086,-0.389088792814029,0.196677972674076
116,116,-0.159426043934084,0.125654213524034,1.00016049429993,-0.0159355787364665,-0.0659417974483848,0.00910964089083508,-0.179466812011436,-0.436477787046807,0.194619140834703
117,117,-0.15943791288291,0.124889708233743,1.00018318501639,-0.0196293697295551,-0.0705494927325099,0.00891762253374022,-0.247429885836972,-0.496529123622766,0.0849186627793268
118,118,-0.159474621764295,0.124124276008176,1.00022752066793,-0.0228881739780468,-0.0752098174506817,0.0084560087424453,-0.291932100054897,-0.45196478565546,0.0063066794556365
119,119,-0.159526199976617,0.123332794912249,1.00028115974737,-0.0244231299321908,-0.0800780203815622,0.0080208497055887,-0.457423935415737,-0.359688836492962,-0.0636657677549817
120,120,-0.159582777294499,0.122489788856041,1.00033138413967,-0.0252476044532181,-0.0854040571818698,0.00768997191373988,-0.480121104132245,-0.283953415045277,-0.0978967720187075
121,121,-0.159615156210003,0.121592962974025,1.00038178774275,-0.0257481921211457,-0.0894657269722477,0.00737850100406558,-0.518055726179341,-0.241611643715267,0.0145922660623233
122,122,-0.159630000689061,0.120659049084485,1.00044006180446,-0.0260955997843084,-0.0918937572604427,0.00713898226908813,-0.489319187955927,-0.302131311403585,-0.0235647667082387
123,123,-0.159671292392924,0.119690892179992,1.00049963539933,-0.0265819476316088,-0.0939699407148267,0.00655482579760842,-0.330209669297407,-0.271204091631971,0.0224979545094984
124,124,-0.159782982362613,0.118691358171241,1.00055422287779,-0.0271286796901236,-0.0975170880771956,0.00571923693081052,-0.0703971468922514,-0.259516294777839,0.0275821566861778
125,125,-0.160008995566846,0.117663324542042,1.00059779925814,-0.0268761968706162,-0.103287877200421,0.00476500433638976,0.0743878512846572,-0.252279179523954,-0.0742595902277616
126,126,-0.160347311943984,0.116578330838066,1.00062037396262,-0.027534087229648,-0.109614704660052,0.00315350677516912,0.289795833970183,-0.346206792754039,-0.148503815304769
127,127,-0.160768741799318,0.115434257573629,1.00062605400337,-0.030080236431782,-0.116603672751451,0.000992512036765856,0.37338605515759,-0.367554721259877,-0.165916145926147
128,128,-0.161276399794769,0.114273515631284,1.00063013605601,-0.0327528138814464,-0.123359195865839,-0.000939877778675494,0.302065725863465,-0.401743430794074,-0.26688068774298
129,129,-0.16187333073462,0.113138555646401,1.0006478804584,-0.0369352796478069,-0.128766592113086,-0.00196580394718843,0.382689740031571,-0.464324156800496,-0.160425303941895
130,130,-0.162562495802189,0.112071861768679,1.00069450611088,-0.0409109250143515,-0.130168743706378,-0.00120970093190322,0.264194084656018,-0.556738570753132,0.0941560126044959
131,131,-0.163429849697281,0.111081203495048,1.00078437584588,-0.0481064528543611,-0.12590371390489,0.00224990867998355,-0.090796020544485,-0.604911866558723,0.390686235813565
132,132,-0.164473307661137,0.110138028493769,1.0009073169978,-0.0582066501791385,-0.121475079057968,0.00812541211553962,-0.0880201420936174,-0.641163942725444,0.27489503132215
133,133,-0.165563710020401,0.109230489227641,1.00104173658548,-0.0705848163336152,-0.11403540013913,0.0147595364573778,0.0472956686970396,-0.839976114944312,0.519642280933629
134,134,-0.166571927667855,0.108346929976768,1.00116610303993,-0.0811112253504329,-0.105267786209807,0.0207509917448767,0.0558340771551723,-0.561827866835139,0.623572178139992
135,135,-0.167368877280042,0.107475888096849,1.00125897714468,-0.0833054059577095,-0.0995458481063088,0.0245821710809133,-0.166371217676417,-0.209541299724078,0.471830664277487
136,136,-0.167951526877726,0.106664092655364,1.00132112885405,-0.0776526048751234,-0.0953869360322102,0.0262662965175085,-0.084595094442699,-0.0865087136363398,0.377541010484198
137,137,-0.168405871008679,0.1059195033314,1.0013671052703,-0.0668201848263969,-0.0927136716283906,0.0269130283502215,-0.0861935882940705,0.0852307219740116,0.178937509323495
138,138,-0.168736487485418,0.105172472448936,1.00139620382658,-0.0556213994944138,-0.0911284642261359,0.0265020623372561,0.041925429309955,0.297626278390024,0.0814587483095174
139,139,-0.168948048130235,0.104353118537511,1.00140767981025,-0.0412618927235897,-0.0900631859590517,0.0249247151645018,-0.049284597339928,0.320179064693207,-0.0119135134801886
140,140,-0.169045309864949,0.103391332545581,1.00140074448286,-0.027392793936818,-0.090717340697176,0.0220828474386636,-0.00373375692909747,0.323860893520717,-0.284982383953531
141,141,-0.168927038690392,0.102218058475185,1.00138292072767,-0.021058275805509,-0.0914944756486771,0.0179210680833479,-0.112111840110687,0.326222476978101,-0.366856998148431
142,142,-0.168590327772378,0.100879669572496,1.0013550747701,-0.0170432445232337,-0.0959519290406477,0.0121153905213275,0.00229782803423933,0.402797953202704,-0.474261423404474
143,143,-0.168187400719296,0.0994791421174705,1.00130642033896,-0.0153500047998387,-0.0998007404056031,0.00523687008408957,0.10102473200928,0.349781221496498,-0.503576672703523
144,144,-0.167870381862969,0.0981196071192626,1.00122621316734,-0.0141179416860765,-0.101804756248386,-0.00214694923008703,0.0869029779546538,0.263457998712405,-0.576769777995021
145,145,-0.167791318586947,0.0969043823636579,1.00110373100879,-0.0144186456570131,-0.10145380226222,-0.00951708679987001,0.157714782613506,0.303401643074758,-0.726891297451801
146,146,-0.168022133994233,0.095828037386212,1.00091766997059,-0.0189600108941965,-0.0994215399598132,-0.0176939595100903,0.198648753586408,0.0145380256755645,-1.05880187771293
147,147,-0.168461545449737,0.0948217373123014,1.0006757856132,-0.0239079592459216,-0.0937351191750765,-0.0270534243535442,0.219100895066244,-0.259092098781619,-1.3407397329069
148,148,-0.169001761895399,0.0938939775813358,1.00041074755103,-0.0293096276658183,-0.0849327997964553,-0.0362699486596075,0.426526735599048,-0.485975098322574,-1.30570309991923
149,149,-0.169534996918332,0.0930534187205413,1.00015498923022,-0.0321461044141732,-0.0752807367645876,-0.0439769083072879,0.337480598394683,-0.445066298587051,-1.13892972305891
150,150,-0.169953448196934,0.0923088671428892,0.999940700947079,-0.0315508954766848,-0.0660375372063206,-0.0487608903068107,0.311640435749122,-0.254557763561857,-0.649800054440493
151,151,-0.170248378962381,0.0917259589856039,0.999762182734245,-0.0298964895458329,-0.0579120163652363,-0.050071330733297,0.130868141792713,-0.140927972088343,-0.480771331878879
152,152,-0.170491856291403,0.0912995694032489,0.9995980351513,-0.0253106901758671,-0.0492839133464354,-0.0489826825673899,0.105807731201974,0.13017596843449,-0.276716727284768
153,153,-0.170697205894143,0.0909321540092176,0.999456636642285,-0.018898156143738,-0.0407522513016784,-0.046111475254323,0.035656089541067,0.317581848795019,0.0637263054145595
154,154,-0.170877680504982,0.0905257464760145,0.999346272625157,-0.0117771824281492,-0.0338514152946732,-0.0423670069549458,0.0623099368417239,0.598064285714577,0.300324500417314
155,155,-0.171046445606354,0.0899819561326284,0.999275123605708,-0.00527120417892015,-0.0305255299416941,-0.0385594107607151,0.151259285444242,0.79838322281901,0.428459250087114
156,156,-0.171196803956008,0.0892650604088219,0.999260262262384,0.000448105993987501,-0.0332758235471944,-0.0347236099272224,0.494609710922377,1.09578454397254,0.584778206698536
157,157,-0.171320019336459,0.0884403125022616,0.99929612342931,0.00886643536249847,-0.0401623526569344,-0.0301564373014995,0.382316151733673,1.08532328401984,0.402064014972911
158,158,-0.171426050223652,0.0875605161402929,0.999356581633575,0.0173730974034552,-0.0477416259910262,-0.0252513515025563,0.453595419439776,0.896754874403398,0.206600133023603
159,159,-0.171524758225715,0.0866785409167703,0.999415235929259,0.0252654133646793,-0.0553425617567585,-0.020185725541381,0.426342416315714,0.711151477429852,0.0588447652555656
160,160,-0.171625916717728,0.0858473417692468,0.999445462919105,0.0289356458117229,-0.0575369385095191,-0.0147596040226852,0.291045589900351,0.456070907204043,-0.0728714239806345
161,161,-0.171725021659499,0.0850312989733331,0.999444326842353,0.0272859811050472,-0.054745399944487,-0.00900200707964083,0.0809988462714947,0.253429083251323,0.0932491776795895
162,162,-0.171815391570661,0.0841950303594677,0.999428883938721,0.0218997757495832,-0.0491051009822254,-0.0030164138004527,-0.056725274966014,0.0798343473850101,0.241221132085055
163,163,-0.171903424231253,0.0833918768187821,0.999402316498851,0.0136349688828772,-0.0424492038876239,0.00304729696350784,-0.0140698831614642,0.17442948342857,0.480423175107269
164,164,-0.171995447823456,0.0826751095341964,0.999367744412384,0.00521302648522437,-0.035791968060965,0.00895225425770872,0.0067175448063936,0.270419900233355,0.55555956936282
165,165,-0.172097734857493,0.0820979371597279,0.999328231455844,-0.00104114629021035,-0.0315815493314461,0.0140637323086478,0.00648477948246564,0.473114744527582,0.574269284513952
166,166,-0.172236716630507,0.0817038601759248,0.999280228989258,-0.00367036067929648,-0.0287851377538668,0.0186815728370966,-0.051713285162432,0.596131718494313,0.493005445882509
167,167,-0.172407965417713,0.0814572654179088,0.999221076383585,-0.00493660669779761,-0.0279560608905556,0.0230858387260991,-0.052710466765517,0.634739800030045,0.365881336224858
168,168,-0.172571487801914,0.0812927166888573,0.999155221787888,-0.00585047895302852,-0.0280018065993337,0.0267224625839848,0.0917228837166551,0.727916286108148,0.44002143806666
169,169,-0.172687329426252,0.0811448354752849,0.999087217203015,-0.00556915642024689,-0.0279401352553914,0.029468653617016,0.072394469264018,0.704457158555322,0.378349483825049
170,170,-0.172715556018872,0.0809482830926735,0.999021702726618,-0.00452200505602889,-0.0269973387109087,0.0309558712513795,0.0352844533870703,0.640345273804196,0.297880509713559
171,171,-0.172622182548874,0.0806894408664481,0.99895657719861,-0.00139029490529975,-0.026151386509137,0.0307669719667061,0.028172466269562,0.577495300902397,0.175136170290357
172,172,-0.172433789580881,0.0804119478947426,0.99888861005129,0.00432116268162141,-0.026325826103682,0.0291552751588517,-0.113823281003354,0.558366692380837,-0.001113643262868
173,173,-0.172201318551909,0.0801363662667257,0.998820800585118,0.010937200271475,-0.0262299684571742,0.0265600316106787,-0.141721701997163,0.543112988269516,-0.042187210531005
174,174,-0.171975728146968,0.0798832494062384,0.998756154891053,0.0168779684187018,-0.0263665943426311,0.0236188176157035,-0.132540969285511,0.622678612339747,-0.0207703345090852
175,175,-0.171807986892924,0.0796731418061046,0.998697698418282,0.0208448688662534,-0.0246936613778393,0.0208787540571917,-0.122746687777438,0.611924794697909,-0.0821053377867026
176,176,-0.171705804902373,0.0794890357188803,0.998643091015901,0.0224095661451017,-0.0206946327157886,0.0183858398520274,-0.0235006721722486,0.613179780343064,-0.0361702287046536
177,177,-0.171635232008385,0.0793173317981222,0.998590434014764,0.0232467099372615,-0.0152024489801094,0.0157743192724217,-0.048025912878792,0.592165387838412,-0.022108595078288
178,178,-0.17158474777938,0.0791836524751979,0.998543436080318,0.0233370649520637,-0.00948343282274264,0.0130570317012546,-0.00115520426924862,0.555706644380234,-0.04616724081302
179,179,-0.171542827489635,0.0791135665804463,0.998505760966667,0.0233755734013143,-0.00357475102377035,0.0103573711018809,-0.0575292102441655,0.478144811383286,-0.0792451309936969
180,180,-0.17149793922562,0.0791325823404962,0.998480993874227,0.0228575955596352,0.00181900327850125,0.00778602536371621,-0.0880305134599808,0.377513241383808,-0.134603311110692
181,181,-0.171466596977954,0.0792673383282646,0.998466972506596,0.0216993814898286,0.00540852450491595,0.0051256342983963,-0.0943625472441243,0.346940599200532,-0.216013921338807
182,182,-0.17145650898924,0.079500812035362,0.998461498859177,0.0181931753330295,0.00911093037353214,0.00219414123960811,-0.00359164058581309,0.282850200638594,-0.116463687562383
183,183,-0.171442915733717,0.0797929373251003,0.998467973382846,0.0145408030038434,0.0129644881341815,-0.000531608574490464,-0.061389468337287,0.189332430359604,-0.0925563144049873
184,184,-0.171401041844566,0.0801035944886343,0.998489702583485,0.0108481759804856,0.0164114049083567,-0.00271686954067669,-0.0145023179720641,0.18425417628802,-0.111178814248157
185,185,-0.17130609881469,0.0803926120985507,0.998529891682491,0.00838560668707453,0.0189077532556075,-0.00406596928374952,0.00839281703136244,0.180404403356029,-0.131788884565748
186,186,-0.171146193439793,0.0806422026112808,0.998591123240453,0.00698146317661363,0.0201573016680621,-0.0043307762327188,0.117264119074464,0.249039360147011,-0.0251360312213996
187,187,-0.170937830200321,0.0808789043581878,0.998671235672315,0.00675296571739403,0.0205083308509393,-0.00363626946535396,0.171802845838181,0.279233372339025,0.0145154023489649
188,188,-0.170698806763572,0.0811291020281742,0.998766238799533,0.00716946063803291,0.0208837665112669,-0.00252307893875224,0.224979218350289,0.323257993199114,0.0590712617675586
189,189,-0.170446913584922,0.0814193242232937,0.998872137162875,0.00813494519848616,0.0230692893417402,-0.001412187224035,0.153778821179583,0.280117171561621,0.0818523559518302
190,190,-0.17019993744514,0.0817762447689161,0.998984931516005,0.00889919750890972,0.0270881962200539,-0.000930489263596351,0.0567248950463102,0.309404738822582,0.0207089442473847
191,191,-0.169941608870061,0.0821968202653479,0.999111471447846,0.0100363824188771,0.0325948931719098,-0.00131848567015322,-0.039628935535837,0.299977950538348,-0.115760616990519
192,192,-0.16966003815485,0.0826634025773648,0.999254377666236,0.0111329261150558,0.0391005180754547,-0.00226578845703969,0.0181990894857234,0.35432927820518,-0.143739159758825
193,193,-0.169379596268128,0.0831808279117013,0.999403332165632,0.012171849584439,0.0461349923301644,-0.00344359024504371,0.0639154787241527,0.374820659852659,-0.19694306537635
194,194,-0.169124672033142,0.0837538875044033,0.999548048661081,0.0123344636661508,0.0536186437100704,-0.00459786654451008,0.117060942002899,0.392571411549527,-0.221629221218398
195,195,-0.168919673364096,0.0843873303234005,0.999678270726926,0.0115979603374964,0.0606981158231462,-0.00539698371202168,0.109937929565108,0.443715906198037,-0.266621827433822
196,196,-0.16879492834813,0.0850901406433791,0.999804214289199,0.0101716588782311,0.068083209617221,-0.00596503810609542,0.14777391125957,0.405623717573634,-0.291875211226554
197,197,-0.16873420159496,0.0858591867222609,0.999932773858832,0.00807555548580237,0.0759148101770701,-0.00644172980668108,0.136893890811784,0.37738911564028,-0.316972605965839
198,198,-0.168692068307797,0.0866809896755881,1.00004871184777,0.00659357411682412,0.0839683213447638,-0.00670399923798333,0.113537815344841,0.260913607311702,-0.330826974084988
199,199,-0.168623094676085,0.0875420377473068,1.0001367664531,0.0057057587488854,0.0907815424458605,-0.0065941742135298,0.11483109060891,0.322955285043616,-0.0381145684272503
200,200,-0.168481835413221,0.0884287854489952,1.00018165075589,0.00654680149875419,0.0958229285002827,-0.00555638672453684,0.0136102636991162,0.347326097943758,0.0649678266353266
201,201,-0.16828031784935,0.0893439372609524,1.00017060108695,0.0101574041659975,0.100514074926973,-0.00397369914697803,-0.0834451223415938,0.377809152748365,0.257175985018937
202,202,-0.168048884037507,0.0902964454351449,1.00011382962646,0.0169133023795159,0.105028750961777,-0.00175260634921865,-0.136791063389855,0.310165431388133,0.321553852091534
203,203,-0.167769536146736,0.0912821639020645,1.00003043916763,0.0253806067702875,0.108726469892995,0.000600706186136007,-0.174454994617992,0.358638874915642,0.254483064036204
204,204,-0.167424245973701,0.0922970143270492,0.999939464691564,0.0332203800525838,0.111470210189921,0.00273194420230483,-0.336447109741276,0.404740867853031,0.114856628741059
205,205,-0.166994952085368,0.093336976241858,0.99985988045556,0.0357841175085715,0.114714243981816,0.00493720308721124,-0.394672349867117,0.40850585342879,0.0317425349210299
206,206,-0.166399528256172,0.094427841700353,0.999774716217326,0.0266997476260593,0.119374816226286,0.00752244975841536,-0.518701277367854,0.435168992554198,0.322753362830578
207,207,-0.165649977414823,0.0955723806794819,0.999671130593493,0.037552450867254,0.119040641590811,0.00534445023175773,0.145231578378468,0.368490831937949,0.00952495632398206
208,208,-0.16486941388386,0.0967320142350073,0.99957435671096,0.0433239047318524,0.118598021321759,0.0035395620508861,0.203180705682104,0.245995939335211,-0.0756922573049321
209,209,-0.164180969318668,0.0978681321312579,0.999509740937625,0.042423051044119,0.117749515891908,0.00330110323152786,0.0476014161306746,0.280965833627199,0.185647178577577
210,210,-0.163707792599294,0.098942065222745,0.999502755558672,0.039808175385754,0.114754267632446,0.00433950031943355,-0.0548694340764823,0.285507860945281,0.252899153262233
211,211,-0.163527688175836,0.0999482976774774,0.999561961304323,0.0336915628421889,0.109902522938833,0.00725820290626063,0.00120847056499289,0.261762890638585,0.457146705851936
212,212,-0.163558542126509,0.100912273847936,0.999670662800548,0.026165586190921,0.103145371471958,0.011615461316895,-0.0650060739964172,0.288695731351371,0.496727410792026
213,213,-0.163683625860332,0.1018417827366,0.999816501218387,0.0185627578181204,0.0957475062551538,0.0165017088540923,-0.166783243952378,0.295289856197407,0.387026431033006
214,214,-0.1637862034635,0.102744861634976,0.999986992823557,0.0134366463066742,0.0887927890571615,0.020946664324358,-0.285012409419906,0.304935837398391,0.237845729033782
215,215,-0.163749530704374,0.10362983397302,1.0001695056061,0.0116494937979909,0.084096786380901,0.0238122833814127,-0.198672422508394,0.230290576374454,0.245983145890837
216,216,-0.163537494760246,0.104473162879575,1.00037619318183,0.0137005471713577,0.0821020411392931,0.0250479255941334,-0.0658985219556288,0.384727346035626,0.248208296352732
217,217,-0.163227833698436,0.105269508825497,1.00061545117544,0.0190490794241173,0.0808485652503676,0.0253355377322265,0.00772422749822238,0.38744203688138,0.0848637969979916
218,218,-0.16287461666684,0.106054621614089,1.00086894371315,0.0258148659794867,0.0813387485981237,0.0248746303790922,-0.0918335121712673,0.198995796411833,-0.00699278144195127
219,219,-0.162531982610692,0.106864147910013,1.00111842417504,0.0319387560646599,0.0824244292689641,0.0237731780327633,-0.147065189387601,0.0560120261647379,-0.123656314086333
220,220,-0.162254140807962,0.107733633673296,1.00134574123968,0.0345726557514662,0.083946330771409,0.0221447057233868,-0.0964121745542522,-0.0599244543199678,-0.244275716907435
221,221,-0.162020469050321,0.108686046511564,1.00155771106954,0.0327123770710662,0.0860010967661011,0.0198652785891666,-0.0174601592874065,-0.157115845035884,-0.258696980895882
222,222,-0.161794873779876,0.109697620938312,1.00176663451965,0.0284349600397787,0.0886609084005786,0.0168107555696405,0.0103408112647637,-0.321047621346063,-0.331553661374608
223,223,-0.161608415731071,0.110733804202448,1.00196263060291,0.0218392867230658,0.089901480851278,0.0133469891449924,0.238822465067528,-0.279962945256972,-0.326823252665789
224,224,-0.161492177209634,0.111760138785786,1.00213579213856,0.0151476739592555,0.0894375816110597,0.00978298887321548,0.338173755140755,-0.135942999887177,-0.332648381309916
225,225,-0.16147726033632,0.112742253431722,1.00227618367758,0.0092921312836446,0.0886694329195186,0.00650727470277459,0.219709291434433,-0.0951816355780778,-0.420508023968892
226,226,-0.16162029097454,0.113684027025727,1.0023851465523,0.00221096895841571,0.087120771329922,0.00334149889884311,0.208233750886428,-0.0910230147534855,-0.451537196657176
227,227,-0.161900614369932,0.114608592477394,1.00246937406375,-0.00732252643615658,0.0840980092848195,4.08323439749509e-05,0.32358333358892,-0.0551093449426562,-0.475824799108538
228,228,-0.162233403011652,0.115510449266835,1.00252701677931,-0.0170881483219072,0.0803736908640678,-0.00318324364737035,0.415406038870652,-0.0657404360210577,-0.437900195431228
229,229,-0.162533813996363,0.116384012514296,1.00255636662787,-0.0248674450009184,0.076333816126356,-0.00616477856277221,0.344956924945229,-0.0853973505175475,-0.353027759896862
230,230,-0.162717000675196,0.117223591784464,1.00255588379881,-0.0284109505051291,0.0725191164931537,-0.00877968335290216,0.190106475692136,-0.166593615543218,-0.237955272174096
231,231,-0.162790901244017,0.118020474543053,1.00252602678487,-0.0224189016414925,0.0712186326515429,-0.0108747345202491,0.0309223612985089,-0.18319262549012,-0.550652452425427
232,232,-0.16281213873253,0.118778289127103,1.00246833531243,-0.0127851640711302,0.0702443267699891,-0.0121772190907095,-0.305408476078878,-0.169546139652366,-0.632367342596133
233,233,-0.16276888874291,0.119509826989531,1.00238304886791,-0.00211750745398125,0.0677774316160297,-0.0132380311530769,-0.490728416053517,-0.0498372401962813,-0.583720058992673
234,234,-0.162649317430096,0.120227991779806,1.00227043759571,0.00676466560118371,0.0645810702533255,-0.0146744515318415,-0.493127823076158,-0.00586278523028724,-0.426323734688431
235,235,-0.162441577018564,0.120945816213225,1.00213080549435,0.010825883593459,0.0606617924862884,-0.0170304132900267,-0.416380699478258,0.0329534011790394,-0.114957442042768
236,236,-0.162101325469627,0.121684328942057,1.00195390081357,0.0181033522172209,0.0583747770831788,-0.0217223318764516,-0.203480363849635,0.018595203217163,-0.266714081077807
237,237,-0.161636523130913,0.122434821313213,1.00174049234421,0.0248348351059952,0.0570655275132999,-0.0278833647330096,0.0485860515080221,0.072629281798834,-0.34934847168115
238,238,-0.161113765522352,0.123165919728818,1.00150715863843,0.0308687577080556,0.0558260825736326,-0.0346454615738992,0.158521132008931,0.136282350705476,-0.503640895023092
239,239,-0.160599654292194,0.123846393610424,1.00127007770837,0.0368744047597547,0.0531355626254842,-0.0411205757301136,0.0137561825736431,0.161340929828517,-0.77512880462728
240,240,-0.160160783267779,0.124445154081057,1.0010449978283,0.0393406575366368,0.0483362054901703,-0.0464648700157839,0.0567582313537819,0.160284892609175,-0.849109797957909
241,241,-0.159782729707964,0.124920247663848,1.00083113890535,0.0370414813448354,0.0426484937312529,-0.0514682092538659,0.060267684926523,0.035564376654836,-0.761198473506056
242,242,-0.159421127868069,0.125292871745916,1.00061810965288,0.0322392164570162,0.035811004016009,-0.0565942458460058,0.0576373022293226,-0.0837862326723938,-0.603434428831693
243,243,-0.159097665822283,0.125626499567517,1.00040675364844,0.025548564913563,0.0276901977877295,-0.0608659739234341,0.144094679347278,-0.0879973964383885,-0.406990343868798
244,244,-0.158834089615133,0.125984256402224,1.00019772295315,0.0194565130228786,0.0204321890154649,-0.063368775682287,0.0748950371241466,-0.166681265395152,-0.243015585952226
245,245,-0.158652204727303,0.12642893373867,0.999991496360754,0.0154338107392242,0.0160061987640291,-0.0631387138944893,0.0150063707378552,-0.224450010015687,-0.108547356858509
246,246,-0.158593089248763,0.126989259131144,0.999785245933294,0.0132631496352219,0.0150306046094197,-0.059882726014166,0.0543241712814524,-0.251392414311393,0.00888852896544415
247,247,-0.158642377202758,0.127622937270439,0.999578427786619,0.0121272150258788,0.0161682284692345,-0.0541622750476882,0.096009347110332,-0.337329099619142,0.305646230291967
248,248,-0.158738628470434,0.128286068097633,0.999374699755529,0.0125445055554971,0.0186986537179779,-0.0465436483862289,-0.0436313091966947,-0.447091258259948,0.438057329190602
249,249,-0.158820259930562,0.12893485821237,0.999177534425104,0.0134038958126832,0.0228836784259482,-0.0377779136006312,0.00318000522553887,-0.591142570392497,0.56954785796645
250,250,-0.158825561964675,0.129525627281847,0.998990223269366,0.0153531343086408,0.0262906329886297,-0.0283854841416022,-0.0268444480691742,-0.699065325895342,0.823102608891001
251,251,-0.158739960462893,0.130046057442898,0.998807643644581,0.0215613258782587,0.0278188449000907,-0.0171538534302586,-0.206390006508415,-0.73414115528058,0.943613798390522
252,252,-0.158604393699607,0.130525121724041,0.998627121279647,0.0311306098516647,0.0296841474296209,-0.00377107136329232,-0.150197234047769,-0.812727020347837,1.08068306644967
253,253,-0.1584403698927,0.130981279823124,0.998455370728011,0.0408436419307226,0.0307824795222415,0.0100914246232588,-0.126974977680131,-0.75687623332531,1.19243555077078
254,254,-0.158269427119348,0.13143311565516,0.998298941952597,0.0486635040364952,0.029815900676197,0.0226995017633174,-0.15741256769175,-0.599445104481735,1.11680892368706
255,255,-0.158113118584544,0.131899300081337,0.998164235102105,0.0513754749395136,0.0285741750711184,0.0323531751764763,-0.185007021914004,-0.539122872032239,0.849960440826601
256,256,-0.157938284889764,0.132394180815581,0.998056090549253,0.047113375921138,0.0286746192334824,0.0386395307167672,-0.0197346734199304,-0.546110442255999,0.591072083016399
257,257,-0.157730426725754,0.132905460622703,0.997969514483797,0.0375659073503333,0.0289260415289208,0.0427246833573953,0.253329201985498,-0.5331298985686,0.440650935726715
258,258,-0.157539082613215,0.1334119065384,0.997896107658845,0.0252996344215993,0.0294443958717874,0.0450682578922243,0.53784893561741,-0.562802360667651,0.257141385571081
259,259,-0.157413808286889,0.133892300429292,0.997827532118016,0.0124493141629639,0.0300154396102702,0.0460633245540785,0.883473056755896,-0.561651149969537,0.179839368338668
260,260,-0.157404193728155,0.134325434353061,0.997755502675688,0.00302527647769175,0.0290314529777844,0.046082457564484,0.814903243506706,-0.500348655288508,0.123850062961076
261,261,-0.157566280405481,0.134726552746577,0.997673945399816,-0.00281852643687108,0.0265502790201534,0.0449224966402241,0.504322423977689,-0.433314474739763,0.0855869364014789
262,262,-0.157866936178435,0.135109895599789,0.997587933944165,-0.00651157046220141,0.0217261427336657,0.0422391475660305,0.151945765032291,-0.233764246127045,0.0320494419671953
263,263,-0.158222043733653,0.135452676095758,0.997506019637067,-0.00833883314523691,0.0162997204901026,0.0384652625508097,-0.357887244678464,-0.156256415597596,-0.0530200761738532
264,264,-0.158547510770077,0.135732030265645,0.997436887083182,-0.00893103222178705,0.0113339332223491,0.0342157293760906,-0.71552357873293,-0.190122367040262,-0.122448555969363
265,265,-0.158759257388273,0.135925053035911,0.997389347522335,-0.00928891351149533,0.00710395196250592,0.0298603763246835,-0.818989056448556,-0.294536650335057,-0.101804082481694
266,266,-0.158831654040289,0.136011954095965,0.997367296588285,-0.00926673782600465,0.00338956178098669,0.0251161810750931,-0.76982432597693,-0.427341746643387,-0.208169290628274
267,267,-0.158820811711272,0.136007905901032,0.997364860886167,-0.00863781476376395,0.000255115450380613,0.0195371096836396,-0.458480067684283,-0.584395557711204,-0.281536653231976
268,268,-0.158765233105537,0.135942447225678,0.997376265215385,-0.00759483946218977,-0.00275278765740918,0.0136849637631161,-0.170894570794,-0.649292198898721,-0.300374009500262
269,269,-0.158703379230593,0.135845126870945,0.99739571848342,-0.00678515923100764,-0.00559800345479531,0.00825838476618067,0.000653891480672916,-0.494062241023848,-0.367419901252224
270,270,-0.158673673597633,0.135745505652899,0.997417409735639,-0.00564044952191288,-0.00914562558671663,0.00382534597110808,-0.0193254703934288,-0.246704986919123,-0.405883209025454
271,271,-0.158667192792588,0.135644532230269,0.997440027934035,-0.00370102856816055,-0.0111837111801447,0.00034620377430173,-0.113148546632633,-0.0728572521498907,-0.40698517243362
272,272,-0.158658305366794,0.135522551855066,0.997467498419017,-0.0015465253780422,-0.0121831713966942,-0.00258025007580223,-0.146706267493055,0.03909188074351,-0.295339759246451
273,273,-0.158660365114376,0.135378215694758,0.997501859194553,0.000798213289096532,-0.012464175082524,-0.00496147287196984,-0.247404709308913,0.087863938313001,-0.187037277850102
274,274,-0.158686731426348,0.135210133243916,0.997545159858802,0.00283607483361311,-0.0132884008633696,-0.00685444856767565,-0.263655065992692,0.0841844843308884,-0.0958377739257139
275,275,-0.158750762582552,0.135016846944854,0.997599463205908,0.00392128788528424,-0.0151097726123619,-0.00818470175423268,-0.311957978967226,0.0680174927008813,-0.038121457758609
276,276,-0.158837427580078,0.134799274144294,0.997670367073255,0.00387694236262116,-0.017811731244033,-0.00904426124577735,-0.323490532946079,-0.0214205828511721,-0.0787460197171835
277,277,-0.158937842235556,0.134558324422041,0.997756659282501,0.00233827326814282,-0.0201472117234559,-0.00934099848873598,-0.21696365903896,-0.128370312407009,-0.0994527447983435
278,278,-0.159074587241965,0.134292484919832,0.997850220328595,-2.1224214156837e-05,-0.0226739763096572,-0.0092502700944247,-0.0206575188122908,-0.204530369079443,-0.101099728851661
279,279,-0.159270250086598,0.134000282651457,0.997942959076378,-0.00358825114262022,-0.0253229534943172,-0.00871622485292128,0.122674922182811,-0.223797696657142,-0.0661311648857082
280,280,-0.159547425163048,0.13368029853372,0.998026810363831,-0.00772381382518409,-0.0283538057774665,-0.00765286038858303,0.188700368323451,-0.248838289915408,-0.0163863355361171
281,281,-0.159941725299691,0.133346563496969,0.998100146656604,-0.0128233386404624,-0.0321645714929548,-0.00566827450397406,0.216997001121687,-0.26574368983426,0.179874776047229
282,282,-0.160438127022117,0.133000019469431,0.998168699290506,-0.0181093671972477,-0.0369549830080269,-0.00272777551115166,0.0927008042230067,-0.269319106808826,0.204512500349325
283,283,-0.160983266477098,0.132619715675983,0.99823541709426,-0.0228543144898933,-0.0421708012344209,0.000640303938257281,-0.0944217375814037,-0.301116086626765,0.202948812109916
284,284,-0.161523768587758,0.132184776190818,0.998303189564048,-0.0275131335590831,-0.0473315647095736,0.00394597625035559,-0.142625780306953,-0.387157608889638,0.202725278616388
285,285,-0.162006241304369,0.131674405308336,0.998374841416141,-0.0309943347922555,-0.0519004847792258,0.00672236479135413,-0.234083961645517,-0.537223253953541,0.174985879463409
286,286,-0.162436345437537,0.131065676964608,0.998453761773691,-0.0341076330825887,-0.0571008548329149,0.00904183557532251,-0.220603710828643,-0.554223492300528,0.236426997475464
287,287,-0.162849655789517,0.130372780701117,0.998538464296494,-0.0368479600424748,-0.0625231148765051,0.0112952386909076,-0.223966981886205,-0.668535203308048,0.206237053836323
288,288,-0.163237628400422,0.129630544146164,0.998624221015825,-0.0390512968305242,-0.0683868030531255,0.0133830220469525,-0.137712814901061,-0.642258765556908,0.206558580335126
289,289,-0.163591723281294,0.128873616538316,0.998706033581314,-0.040692317607745,-0.0734309235394256,0.0151264792763894,-0.0347654557979533,-0.592805084664556,0.192558318279773
290,290,-0.163903415522381,0.128136460442878,0.998778633041714,-0.0407587711372218,-0.0776225382907654,0.0164365776549662,0.0152559534835676,-0.552478089511099,0.13910643314149
291,291,-0.164137170152362,0.127434383752909,0.99883937545742,-0.0384598019798273,-0.0802343021304345,0.0172948215374823,0.0420269187303139,-0.467534276932021,0.0979688308373927
292,292,-0.164298655440692,0.126744389121261,0.998891552494889,-0.0348697842860608,-0.0805681810598878,0.0178149418792931,0.160170748682576,-0.527247793558928,0.0928981592049783
293,293,-0.164441169232105,0.126043261177006,0.998938604983742,-0.0297867393400995,-0.080234998098566,0.0179040996212822,-0.0128774878658053,-0.486088535967945,0.0342471441585467
294,294,-0.16461800556734,0.12530767700499,0.998983960526633,-0.0254789550155331,-0.0801666077926971,0.0175541189798319,0.12195431739794,-0.457449129755495,0.100827109163446
295,295,-0.16488245190963,0.124514220187453,0.999031029058418,-0.0216237585155685,-0.0803277174171712,0.0169681910135367,0.0871738303143484,-0.398298288552081,0.084847245277085
296,296,-0.165239562304679,0.12367176033693,0.999076627872617,-0.018873797769767,-0.0813065351388673,0.0157047699080931,0.0882053388945955,-0.40119361939465,0.0462605206167813
297,297,-0.16565379845171,0.122795619834178,0.999118188363874,-0.0161271119477691,-0.0820629349529879,0.0137806032111353,0.057436862818835,-0.472253497087385,-0.0209431922870511
298,298,-0.166117561870667,0.12187209001947,0.999160156686627,-0.0144713248646766,-0.0822481570898375,0.0116573562399754,0.043411957259538,-0.577402355119266,-0.0354680304318115
299,299,-0.166623264245261,0.120887546269048,0.999207145367929,-0.0136936197810281,-0.0831670138922247,0.00974092506342195,-0.0410034818345716,-0.56505122452981,-0.0937817324318414
300,300,-0.167163324764454,0.119828434924641,0.999263932619975,-0.013603473581783,-0.0865940278025692,0.00847468356016285,-0.276818384107144,-0.407933031158593,-0.086763805088064
301,301,-0.167747599061238,0.118652347093106,0.999325784190965,-0.0155860352301161,-0.094039645752577,0.00751044236726578,-0.307109438341506,-0.25894453096671,-0.130752356821337
302,302,-0.168381193812988,0.117368287851993,0.999389694267188,-0.0204358163118648,-0.102880711371338,0.00653230237415541,-0.266703073703543,-0.370213246253454,-0.111918604639922
303,303,-0.169049333745286,0.11603994509616,0.999463140524822,-0.0266906112278152,-0.113051404565665,0.00585027355894495,-0.1394508158725,-0.29093292507497,-0.0321808564140881
304,304,-0.169737141427021,0.11473108265408,0.999553573423502,-0.0311325254142482,-0.120907668797354,0.00616398478409124,-0.204769102039752,-0.460568210542817,0.1766140068023
305,305,-0.170429644493687,0.11350555885479,0.999668427040968,-0.0354418002243993,-0.125990301741316,0.00795447293764834,-0.178412352088625,-0.310883447330835,0.229876869425303
306,306,-0.171203203851771,0.112370507153197,0.9998225569957,-0.0412593174769984,-0.128113100704566,0.0120049541403244,-0.0405738245090938,-0.209444793602736,0.292159727287926
307,307,-0.172067559434965,0.111283633571299,1.00001110049639,-0.0489448066200289,-0.124538816702917,0.0180541117438018,0.0269228357405877,-0.291025930467182,0.491340310522282
308,308,-0.172907832663757,0.110234716139772,1.00021204111744,-0.0556445415047597,-0.117439537046633,0.0245515287617575,0.0349407861260586,-0.319437419455188,0.629518920007127
309,309,-0.173609251542191,0.109213510801736,1.0004035532355,-0.0579142871387558,-0.11064138564431,0.0300153787036277,0.00410274867785388,-0.330336169246327,0.495810846600228
310,310,-0.174057151134968,0.108209727167355,1.000564069069,-0.0569458414893274,-0.105083767323184,0.0327590005585784,0.24866708544898,-0.213328023721357,0.463069146377309
311,311,-0.174188992516677,0.107226249814868,1.00071326150509,-0.0540640762554515,-0.0986088177983809,0.0332854163860369,0.176396695115056,-0.0893990071599984,0.363144611101222
312,312,-0.174081243657253,0.106270357995757,1.00086672581251,-0.0351222115585328,-0.0919452246359909,0.0319602758843647,0.254473994636809,-0.214122876212718,0.16082822444577
313,313,-0.173827906313803,0.105337965576187,1.00099669912944,-0.0195271214890055,-0.086097520113921,0.0291951063151494,0.128086092361779,-0.0563087854623363,-0.135249756791001
314,314,-0.173523073932624,0.104424535044764,1.00107488018616,-0.00295977674536843,-0.0822517375900208,0.024351191057594,-0.0055668357663488,-0.088389904830493,-0.449845899539457
315,315,-0.173260903600939,0.103525090946719,1.00107238284226,0.00892335629024054,-0.0799082138754456,0.017271295608201,-0.175432755350022,-0.0185529934688911,-0.895182922666074
316,316,-0.172973400448708,0.102621809416404,1.00097920144928,0.0163512141762532,-0.0792014935074714,0.00609539210376645,-0.226799643293399,0.0440237417219974,-1.04351654619835
317,317,-0.172597966049568,0.101717012895987,1.00081507385817,0.0204519663723843,-0.0799875629465043,-0.00912874749859984,-0.00956891970725702,0.10963849314307,-1.27427447494003
318,318,-0.172236843145839,0.10083607780778,1.00059496536261,0.0204464587644538,-0.0801853581132839,-0.0258990204917295,0.205492758947634,0.0920279505190407,-1.30851014536644
319,319,-0.171992281328614,0.100004984054037,1.00033333520784,0.0171905045884839,-0.0782971987378018,-0.0415892921782033,0.242291519270885,0.0915007631883962,-1.37510408444138
320,320,-0.171966560748583,0.0992502967571482,1.00004408405342,0.0108619991897832,-0.0751662422263686,-0.0538111949129201,0.256935843454818,0.138221362609525,-1.42443245815396
321,321,-0.172245002872792,0.0986061445941337,0.999706621268528,-0.0033108029148022,-0.0716183883132743,-0.062805624031377,0.269887961474268,0.14944517645,-1.45618968547234
322,322,-0.172759552520012,0.0980553481269945,0.999310833704884,-0.0181616231366143,-0.0659577965995979,-0.0703260049934648,0.374275814539136,0.210617561108376,-1.43531469352142
323,323,-0.173382408121977,0.0975477628707794,0.998885957936394,-0.0308511253782119,-0.0592341043153004,-0.0757704366539399,0.444825035906132,0.262806729830526,-1.12790511380556
324,324,-0.173985720620866,0.0970330851780931,0.998461396274942,-0.0400551052750616,-0.0531903670932126,-0.0786723584373543,0.630376922041548,0.395947986035257,-0.578444743377252
325,325,-0.174441587561645,0.0964608668585314,0.998066752342961,-0.0393255122162758,-0.0483786434822664,-0.0780458474773287,-0.0526864947276299,0.363657403069089,0.124029999361692
326,326,-0.174752422802381,0.0958339010316244,0.997674670187651,-0.035189088141333,-0.0468646832235882,-0.0728000253095384,-0.268983434930877,0.248021159609312,0.178464408572119
327,327,-0.175003551675399,0.0951859047116367,0.997264957451622,-0.0275933186272991,-0.0486918827288363,-0.0635646265725427,-0.011205694597623,0.349398352134472,0.661913303159159
328,328,-0.175191308927454,0.0945126457290074,0.996878072081265,-0.0168443838825109,-0.0523968198943354,-0.05213908895468,-0.227252314439014,0.365995223973504,0.776098727121532
329,329,-0.175311914892106,0.0938098091669026,0.99655444395804,-0.00638676863804267,-0.0563694720159592,-0.0406495320760714,-0.179094668499697,0.425138158862819,0.828396636514253
330,330,-0.175361477788525,0.0930729870854693,0.996334485593559,0.000237179371710078,-0.0593445847894636,-0.0310788780517922,-0.0482535223932388,0.51660125470244,0.919432249515484
331,331,-0.175266823416222,0.092276719365093,0.996246171043867,0.00394755940763611,-0.060216779070087,-0.0232372937111547,-0.115545981015528,0.644277262061471,0.856000348266666
332,332,-0.175030279550108,0.0914236973556849,0.996262174892742,0.00601706423163539,-0.0608327845573147,-0.0157127221523614,-0.2261679910271,0.832009154156093,0.686311967805203
333,333,-0.174761185533891,0.0905516702592104,0.996339979226993,0.00628611904103346,-0.0607307222909475,-0.00880807343275187,-0.105383011958801,0.865623504947954,0.486113837302068
334,334,-0.174568965323402,0.0896984591833178,0.996437095059682,0.00480304610333995,-0.0590953404557615,-0.00244281843843353,-0.0394032889042947,0.88607693555013,0.432479536626314
335,335,-0.174563134205414,0.0889019990129055,0.99651104249287,0.00141688766573888,-0.0590895960818487,0.00321172758026627,0.0225363090822365,1.01477248095199,0.277204592861339
336,336,-0.174791519755619,0.0881639891395873,0.996570361590528,-0.00492608435074242,-0.060215134109166,0.00793399109150805,0.271300992767354,1.10709839475761,0.316061248788489
337,337,-0.175181077696044,0.0874590595502089,0.996643129633659,-0.0137471293781066,-0.0607922895196636,0.0118365009060203,0.398260801163919,1.04877750348445,0.25374154414992
338,338,-0.175660111914478,0.0867847123246669,0.996716170367188,-0.0238562330438362,-0.0601472139950415,0.0154297412513546,0.48926485334022,0.975835952284999,0.322723510132766
339,339,-0.176156953185836,0.0861385087878528,0.996776326619011,-0.0319300821177675,-0.0593433218455736,0.0189157145235753,0.446200262826732,0.861400351304291,0.300536738837195
340,340,-0.176599944422026,0.0855180365374154,0.996810461002515,-0.0360419286899695,-0.0594193603981138,0.022516991861431,0.377330590426431,0.847481653718686,0.292379939445933
341,341,-0.177030331066095,0.0849218093333315,0.99680678785505,-0.0365372212802423,-0.0591462427462228,0.0269498185428465,0.253361715526727,0.798170326022646,0.355676568864468
342,342,-0.177495938473609,0.0843515632852323,0.996773879147486,-0.0347148771576959,-0.0581684397962728,0.0318767823059515,0.215480489678779,0.642504729592162,0.500886800405729
343,343,-0.177934973994204,0.0838096739332558,0.99672921902724,-0.0309200551859782,-0.057290158841065,0.0363886425661862,0.0376582719245785,0.640560831365668,0.524380504976752
344,344,-0.178285632113172,0.0832984700194263,0.996690371330868,-0.0258602242411153,-0.0557089310831393,0.0395968014304947,-0.107601294654655,0.591621288019777,0.487239854494188
345,345,-0.178486098653268,0.0828202484998487,0.996674965191999,-0.0197289119243524,-0.0534728017190944,0.0406499148140329,-0.290411267399785,0.594258879451574,0.30152916083545
346,346,-0.178492660285535,0.0823556370633639,0.996690488648998,-0.0123759567873441,-0.0498254922928744,0.0388450238651085,-0.334854993494121,0.506801535746236,0.0556317819416312
347,347,-0.178346541067633,0.0819030731031568,0.996725196903067,-0.00404542780687511,-0.0448585438450803,0.0347287675806168,-0.26163370556338,0.375870993273546,-0.0522326604548915
348,348,-0.17811333277995,0.0814915607184726,0.996767907741858,0.00374074825578137,-0.039013102685088,0.0292971357974291,-0.175681958178417,0.292823905614162,-0.192584502662236
349,349,-0.177858624077167,0.0811501152279804,0.996807455344153,0.0103767169243091,-0.0322961232933695,0.0233644401721471,-0.135195209107106,0.217459012286851,-0.343284473865373
350,350,-0.177647996836191,0.0809077587252515,0.996832696825855,0.0152023397495691,-0.0262774785305847,0.0180097507024809,-0.101055934346981,0.312473564758623,-0.532714880684938
351,351,-0.177463962406482,0.0807869220135961,0.996842012094324,0.0167518706252179,-0.0204723101736579,0.0124288779635263,0.0227947048413762,0.326114084631619,-0.586403178002583
352,352,-0.1772628004051,0.0807682605065275,0.996842863063336,0.0160655658672579,-0.0144850125714625,0.0061311319692379,0.147427984867576,0.361526296803848,-0.589833082929042
353,353,-0.177070730189517,0.0808181480684746,0.996837723525271,0.0136469806583295,-0.00828698185482974,-9.22179028274031e-05,0.293960363846176,0.217026533213428,-0.447908277738159
354,354,-0.176913963345358,0.080902970802424,0.996829041182861,0.0112705252307146,-0.00185618022799885,-0.00529061325218478,0.246858973542154,0.11780549412916,-0.325616836199887
355,355,-0.176818706987577,0.0809891242926928,0.996819242634227,0.0102493349699836,0.00365882597004338,-0.00873107920920974,0.142207038583992,0.041694710772491,-0.205980899323407
356,356,-0.176812647315619,0.081072159562205,0.996797833479975,0.0109342077220474,0.00724047713394711,-0.0099473891623051,0.0358114267077303,0.0955834209103333,-0.168516518872678
357,357,-0.176878274813617,0.0811744994675148,0.996763179935447,0.0115877793877205,0.0100747044330841,-0.00949599410097579,-0.0247364129975553,0.0856658187108532,-0.0285292404068393
358,358,-0.176974011529234,0.0813028475090447,0.996730994649621,0.0118762132358625,0.0129761188289355,-0.007954071449439,-0.0473082440679052,0.134897471116576,0.0659955782719959
359,359,-0.177058296719857,0.0814639028061062,0.996717002886705,0.0124646715315617,0.0157533125402063,-0.00618961059902458,-0.0839662595275588,0.12766499403845,0.0741251292064724
360,360,-0.177089588759986,0.0816643615499191,0.99673694501223,0.0139160301809541,0.0192075026297957,-0.00476892620477578,-0.0757585305653974,0.179290980868596,0.0569093978704539
361,361,-0.177052302073598,0.0819038198979213,0.996795418450327,0.0156668686786411,0.0235468681118672,-0.00371253025098933,0.0129186145331341,0.272298830642531,0.0381814533516815
362,362,-0.176974146914491,0.082177803390846,0.996881984568689,0.0176307599513064,0.0286386595625097,-0.002553940182722,0.0861832150080486,0.315584478623264,-0.0226494675368648
363,363,-0.176878531705074,0.0824869039980761,0.996989841314081,0.0195877856225232,0.0338257221032683,-0.00133801653360423,0.141613952910457,0.359735810295052,-0.0505957817350608
364,364,-0.176788853802729,0.0828317198261534,0.997112189747834,0.0210805472250617,0.0392319106688139,-5.87775015430639e-05,0.158483579476872,0.363454335273464,-0.012399679993052
365,365,-0.17672849974502,0.0832128575909692,0.997242232553554,0.0216707168454085,0.0439469931922384,0.00120898695597355,0.151046059422982,0.384083812615319,0.0157011291111426
366,366,-0.176735668009974,0.0836240091658249,0.997382295919449,0.0207927358603958,0.0474935279081279,0.00274385432983591,0.16779997361065,0.45603194223342,0.073855950510505
367,367,-0.176794763708764,0.0840647780481612,0.997537029792893,0.0182609978220843,0.0503781097476364,0.00441131725571871,0.214254011519588,0.482624163312451,0.110145322509416
368,368,-0.176848480897001,0.0845446385519407,0.997703098235672,0.015975649768802,0.0532668111666032,0.00612178114775657,0.149917435195515,0.500958916100397,0.080633198359557
369,369,-0.176839518323766,0.0850730522605088,0.99787712993797,0.0146918482372804,0.0572290920279791,0.00762037616014384,0.129223252271102,0.4665660254145,0.0696101621592901
370,370,-0.176710577479717,0.085659466936517,0.998055716037772,0.0148314304191406,0.0616794121502964,0.00853495616232343,0.12743010148814,0.406660632014239,0.101601168612505
371,371,-0.176431797163798,0.0863069427903662,0.998265214246129,0.0171445877994755,0.0664787857172743,0.0087954712090446,0.0714534497137817,0.447688202935861,0.0393774139031966
372,372,-0.176041390617869,0.0870091605119548,0.998507976385072,0.0212292109256794,0.0721440216751403,0.00873376363862703,0.0477986622139771,0.386088617151779,-0.00568815684638969
373,373,-0.175584169646145,0.0877614869271053,0.998744532552328,0.0254723751227289,0.0777124157060545,0.00870698418389497,0.00859115353562063,0.393166557564122,-0.121392235712735
374,374,-0.175104940290446,0.0885592866756567,0.998935370841524,0.0274490017379424,0.0838670774003358,0.00913444962321744,-0.0657030563442785,0.403366792585324,-0.130333534336236
375,375,-0.174648507192562,0.089397923341886,0.999040942216718,0.0299075393876328,0.0893642064600219,0.00904691306515814,-8.83364739413129e-05,0.306712927542716,-0.0625640351613679
376,376,-0.174186788606126,0.0902903823513492,0.999019718746541,0.0315179070253336,0.0938962777868102,0.00875775790714396,0.147056962265671,0.471139335955753,-0.0823040039700603
377,377,-0.173689947639371,0.0912397385576304,0.998898082137631,0.0270942340244853,0.0993921062339865,0.00920173991720605,-0.0307008359121403,0.511689327915546,-0.0548382643526757
378,378,-0.173200146524333,0.0922264792964979,0.998738358619969,0.0251795800871589,0.1057657369131,0.0089067965275988,0.0908550969425704,0.448647731300891,0.0299658678068635
379,379,-0.172759518716289,0.0932310725284416,0.998602883864247,0.0268119623893373,0.109405357511337,0.00836424805426018,0.194109269078895,0.40118348664714,0.0167882038716614
380,380,-0.172410164806752,0.0942339675034024,0.998554016918644,0.0285231051952309,0.112271444127402,0.00857595133759451,0.158103935625054,0.250114788824166,0.0673741948559754
381,381,-0.172179350605275,0.0952391469332278,0.99860055827459,0.0298949188899338,0.114233761894042,0.00910732083891594,0.124337482023519,0.243694354710877,0.0772341771765029
382,382,-0.17203899006321,0.096259588192907,0.998701191031674,0.0311617958835707,0.115190565719287,0.00995254490289647,0.0469784803023026,0.189547602977343,0.165188478715601
383,383,-0.171948127854991,0.0972892343152403,0.998843069824721,0.0314764547699453,0.113744805306039,0.010725484051441,0.109025127431938,0.236152994035972,0.152749606979466
384,384,-0.171865801202686,0.0983220386038015,0.999013202885428,0.0315606872404625,0.110755376251914,0.011957397744917,-0.0205959575829864,0.261502565344951,0.172828586171588
385,385,-0.171751038693616,0.0993519617636998,0.99919843152333,0.0292108236296049,0.107804797603617,0.0136605480487231,0.0355796915879119,0.336734609700066,0.309779819409366
386,386,-0.171615003503096,0.100391684478463,0.999414501087747,0.0240397491351094,0.106285808809994,0.0159528301473671,0.184258159429766,0.382348437630961,0.42090662433582
387,387,-0.171484955066198,0.101445182067655,0.999670155357004,0.0178754456842579,0.105871495161494,0.0189528472634907,0.20027123069233,0.30377873752621,0.457106298138361
388,388,-0.171344083774791,0.102493401841036,0.999941616188368,0.012113360380747,0.106100726794201,0.022046332105443,0.0662726052979731,0.245754143790588,0.313247266898934
389,389,-0.1711756110805,0.103517342008997,1.00020511529919,0.0089205556537007,0.106275684364298,0.024464583224084,-0.118546092105777,0.211621757794451,0.0274793284142483
390,390,-0.170962790111658,0.104498054084894,1.00043690568016,0.00738886995521685,0.106316372045797,0.0253124101188044,-0.102392121611004,0.191853380727224,-0.0141665778803285
391,391,-0.170683709789615,0.105406797386655,1.00063403713301,0.00922832183814101,0.105795243868628,0.0244411572840462,-0.324585436240597,0.197567180091922,-0.139357887299471
392,392,-0.170349575818327,0.106256336920155,1.00081235620878,0.013939623223312,0.103359636924399,0.0222981965863627,-0.511948673400131,0.323894529899057,-0.188274998821489
393,393,-0.169993319388935,0.107089963227133,1.00097640402074,0.0190182727524894,0.0996056221821063,0.0194200599542757,-0.459389334271388,0.303098394289914,-0.237966720552838
394,394,-0.169647840562805,0.107950875867118,1.00113081205266,0.0223970484551728,0.0955015688916742,0.016298612227634,-0.27356958499699,0.18590988907768,-0.253306363586218
395,395,-0.169346006538875,0.108882180632611,1.00128030358897,0.0224846745526789,0.0932407225561486,0.0135370630027883,0.0683807769235295,-0.0630640643802676,-0.237598546199711
396,396,-0.16907127542628,0.109918967160405,1.00143115027482,0.0201884115404666,0.0913930565075112,0.0113652478066621,0.319330864553786,-0.187539423525695,-0.303834532374945
397,397,-0.168801656740542,0.111032300962921,1.00158058595975,0.0157748719216794,0.0889255874305503,0.0093086895061366,0.547917904300831,-0.117503849604415,-0.233728808986956
398,398,-0.168561871282794,0.112169331411027,1.00171978481038,0.0110753559286996,0.0857079152731153,0.00714509328322176,0.466820031298827,-0.0591494133509394,-0.261904929163097
399,399,-0.168376715251721,0.113277421771405,1.00183983612745,0.0062742047369302,0.0830705316396967,0.00475957299896965,0.430018281145017,-0.148328756251058,-0.271537790025121
400,400,-0.168271059840429,0.114304148341734,1.00193174007255,0.00266929492454036,0.0805032858380064,0.00195557007588294,0.347980322091595,-0.216419210355794,-0.268996332953715
401,401,-0.168283393591686,0.115233251620301,1.00199629808562,0.00103909688928711,0.077441134542027,-0.00146844608935466,0.0988307596288908,-0.254962423393836,-0.305299477807803
402,402,-0.168397237365462,0.11610010152101,1.00203988182144,0.000618016920346987,0.0737630398506178,-0.00532522031799739,-0.188197483903906,-0.239439061197405,-0.361210190254218
403,403,-0.168555058761191,0.116929742409171,1.00206158844309,0.000420839218384467,0.069933204181031,-0.00930090788733781,-0.281588936887529,-0.160757488027404,-0.360863892487625
404,404,-0.168699329431776,0.117747032377679,1.00206024299872,0.000967946828703087,0.0668213220612022,-0.0130504337081633,-0.322824237934371,-0.176914902298003,-0.441932582997447
405,405,-0.16877252874644,0.118576643587372,1.0020343939668,0.00237683793234028,0.065291465119894,-0.0162177881700331,-0.34092852367014,-0.115683329300086,-0.488336672640667
406,406,-0.168766853620435,0.11940525006087,1.00197999093614,0.00741295106793918,0.0687963072163759,-0.0195947454133793,0.0628355415799358,-0.0381196537727024,-0.892053944597029
407,407,-0.168720780094369,0.120216438746392,1.00189779518393,0.0100023889157272,0.0735912841111857,-0.0227553437754254,0.20856513971647,0.100089910179029,-0.832679853777717
408,408,-0.168646181422972,0.121030025537668,1.00179328891495,0.0109709300051084,0.0784870759712103,-0.0252363080668103,0.203084811194676,0.146962593445457,-0.756093589531463
409,409,-0.168554891310746,0.121865693481443,1.00167184753673,0.00958218172411968,0.0842572576929234,-0.0268157148947492,0.319151412762083,-0.0144454523585532,-0.40692312597821
410,410,-0.168458699072661,0.12274301304292,1.00153875156593,0.00680281927623939,0.0883728839275906,-0.0270687273529101,0.269032968092814,-0.101004033723051,0.0689759371225635
411,411,-0.168379866002053,0.123680662257971,1.00138702025255,0.00709421458272701,0.0913889863937118,-0.0260520236697157,0.256954569413026,-0.280709252824633,0.0777062429482909
412,412,-0.168310544346156,0.124665349087291,1.00121264990456,0.00740200608895136,0.0942609331536078,-0.0235614994472843,0.127732505044397,-0.285788941484895,0.235051236618346
413,413,-0.168217316433477,0.12566870801957,1.00102546356406,0.0086982679138238,0.095694284898089,-0.0203978107793105,-0.12129763950708,-0.12223010121068,0.315925845347908
414,414,-0.168066773079286,0.126662439649635,1.00083545147281,0.0112081356082597,0.0967260844580004,-0.0172995450868016,-0.349068287421877,-0.0977334335601806,0.23652584534557
415,415,-0.167825517044233,0.127618284573116,1.00065274763673,0.0150404121569694,0.0961566200695392,-0.015181560864447,-0.413043196530772,-0.0249947173250523,0.16141249146952
416,416,-0.167465666719369,0.128547716247225,1.00046982660159,0.0205881026380772,0.0936572448616623,-0.0143807909306204,-0.359801587722295,-0.0244608591602766,0.130833150752785
417,417,-0.167009482630437,0.129469611949354,1.000279915775,0.0277886340084386,0.0908707702359324,-0.0143663965442786,-0.388811749057089,-0.114126128521311,0.128636774396849
418,418,-0.166498797164023,0.130366803441959,1.00009435847533,0.0352206531134255,0.0875022764870575,-0.0147244776724913,-0.343050088621292,-0.125100438202322,0.0960925679290264
419,419,-0.165975465564743,0.131222062546722,0.99992448438913,0.0415588547711836,0.0834239892704773,-0.0150332075577282,-0.294994566120236,-0.0744874560542585,0.0954681681531589
420,420,-0.16548136633791,0.132018102777576,0.999781616482252,0.0455389092074086,0.0793763666813696,-0.0148136611138907,-0.23088708975363,-0.138013023513692,0.00742348805874754
421,421,-0.165012811432668,0.13273776923824,0.999667299171937,0.046604074031265,0.0755832924451126,-0.0141029798807926,-0.120247146646951,-0.215940658916837,0.0632256019137487
422,422,-0.164541941743519,0.133392443382587,0.999573889716295,0.0445935143593041,0.0718532316910472,-0.0129881837453294,-0.0545361241708551,-0.22643894986192,0.117061537460409
423,423,-0.164074361079555,0.134007626385581,0.999498971292584,0.0414234881853904,0.0675852227365479,-0.0117088193329778,-0.0543541443493885,-0.195460857051535,0.149265188895825
424,424,-0.163615634731661,0.134608852806869,0.999440183376648,0.0380632383813617,0.0630644391353429,-0.0104099990363584,-0.115691722917923,-0.208743397179488,0.222969013430629
425,425,-0.163171291537901,0.135221691712477,0.999395222686941,0.0361636191302934,0.0583801218427934,-0.00935616907429978,-0.11630192708917,-0.205484074014309,0.191248356424498
426,426,-0.162753236872665,0.135857802321698,0.999372760229053,0.0362858046651991,0.0541430678707664,-0.00878191920593475,-0.087742365985401,-0.299699586814174,0.179710990538797
427,427,-0.16235775231436,0.13650005467631,0.999374400085836,0.0369984993121695,0.049680641690644,-0.00849252719886567,-0.0439021652191895,-0.311946618615474,0.134315297968525
428,428,-0.161966890622029,0.137130910364563,0.999387273880001,0.0385467864806132,0.0449049672793483,-0.00826517597083407,-0.0476277709211257,-0.321751254377692,0.0486962798483679
429,429,-0.161562688195072,0.137732899027052,0.999398504624132,0.0406007962968349,0.0403354266574287,-0.00795718242036585,-0.041578800835693,-0.415853166098451,-0.063429774166874
430,430,-0.161127161912363,0.138288626572641,0.999395209222019,0.0430098944484519,0.0356272297814298,-0.00738157113666649,-0.05756735640009,-0.479743597298216,-0.100052721373776
431,431,-0.160635476909974,0.138790430492607,0.999377203231614,0.044658799693848,0.0311998179270529,-0.00665162170776014,0.0345699859228284,-0.577906542842803,-0.0875185832345192
432,432,-0.160099552811616,0.139250002267635,0.999353163492603,0.0466381999092922,0.0268384458358046,-0.00578453906366587,0.0424673341679234,-0.674135527449886,-0.0162945861318767
433,433,-0.159556494666373,0.139679100220054,0.999323466540846,0.0474255199587979,0.0229087703086733,-0.00475276051994095,0.247698208042825,-0.743147661753937,0.0260279321442279
434,434,-0.159043381068619,0.140089552551153,0.999288448022884,0.0476603118686853,0.0198991258732884,-0.00345497268194418,0.305255725857044,-0.764691237450809,0.116291385247478
435,435,-0.158597272594219,0.14049324563675,0.999248396683738,0.0472422127447959,0.0181667046062848,-0.0018845151528825,0.306155238318253,-0.690134054331306,0.215239290206175
436,436,-0.158233196047566,0.1408897947617,0.999199508608782,0.0460930152061777,0.017622468442377,0.00028014002913928,0.28516648661672,-0.61588871862032,0.294021680622133
437,437,-0.157926290297212,0.141271674169956,0.999141652320906,0.0444858205345607,0.0177809212119152,0.00301594912507024,0.116575787172061,-0.47089042603204,0.232061453824688
438,438,-0.157653827177897,0.141639934561544,0.999080469034822,0.0426652939253179,0.0190120647429182,0.00580526958225379,0.0677360540370393,-0.434168948024676,0.206570301991283
439,439,-0.157393145529383,0.141995396919124,0.999021449179077,0.0410425267025579,0.0198353289596452,0.00834435266995252,0.00993970341955703,-0.343706836706238,0.262728395296721
440,440,-0.157121641586556,0.142338660824089,0.998969948840569,0.0399314910647494,0.0207427785278746,0.0102874233941323,0.0147309744421441,-0.337632211803297,0.21985711097972
441,441,-0.156832550366985,0.142680608445672,0.9989246020348,0.0390309612318848,0.0222310651649536,0.0115300092231994,0.0475345672351197,-0.302838904982056,0.199554771830044
442,442,-0.15654096464766,0.143020705924968,0.998881566151021,0.0387561761846407,0.0249926714344451,0.0122923684730699,0.0758028678540875,-0.347619998079834,0.159871601900632
443,443,-0.156257107867332,0.143342259350171,0.998842401714933,0.038597718215777,0.028090481793537,0.0126087344127589,0.108878136782468,-0.327021055513152,0.087006252698442
444,444,-0.15599120920098,0.14362854676715,0.99880867400387,0.037831879689512,0.0304647695970735,0.0126144837455275,0.162552328736594,-0.285573217217022,0.0595199050485629
445,445,-0.155753499010144,0.143862828449335,0.998781955141349,0.037067818499191,0.0307901690669973,0.0124467408824047,0.113676621264465,-0.205118653763393,-0.00206133898210889
446,446,-0.155532386138971,0.144033965549175,0.998762909915159,0.0369422625986214,0.0298393693317778,0.0120335496811695,0.0368849609663364,-0.207665657138321,-0.0374355343449798
447,447,-0.155321064798383,0.144152968975024,0.998750319322415,0.0367629106838787,0.0277579663823912,0.0112529643356759,-0.00482308264795835,-0.234180581664834,-0.0616169865871831
448,448,-0.155136934354372,0.144236368128621,0.99874296012496,0.0365418267102088,0.0246401964835388,0.0102186949785238,-0.0803886277656828,-0.21285209136203,-0.0514431313705857
449,449,-0.154997394970819,0.144300740408826,0.998739634049636,0.0353786566893992,0.0209427650730888,0.00903232691897581,-0.0740829694071945,-0.267873430504371,0.00354442010919276
450,450,-0.154919854150861,0.144362689679527,0.998739162195009,0.0331496184144751,0.0165058800538604,0.00784537088589801,-0.11672470544225,-0.217822566312149,0.0024343055492981
451,451,-0.154913466922677,0.144428195218086,0.998739866371974,0.0292390423313108,0.0116960351174122,0.00642747860249957,-0.11547474163187,-0.221616002530324,-0.0101784911284627
452,452,-0.154966625409581,0.144486194004304,0.998742501680922,0.0244731458800919,0.00641561449026086,0.00472005635270997,-0.180157016950691,-0.194639445877212,-0.102744167874224
453,453,-0.155065599567263,0.144527730752145,0.998749560131861,0.01903556107698,0.00119303351268281,0.00306134909418246,-0.150408420588896,-0.174914853180344,-0.123683109645608
454,454,-0.155196662563484,0.144543850778089,0.998763543133692,0.0140478467385714,-0.00299130444819989,0.00174033976819069,-0.167727524431275,-0.179183255606065,-0.170760962494767
455,455,-0.155346091788119,0.144525607130736,0.998786960110356,0.00998834708034693,-0.00655128579336907,0.00113603608877995,-0.142024330949408,-0.0970315718774998,-0.143834185373565
456,456,-0.155518924311069,0.144476073759588,0.998820318852751,0.00591712323478965,-0.00870243487888445,0.0014802951795318,-0.11865099089832,-0.0450595499778995,-0.0476789645310349
457,457,-0.15572432855918,0.144401211208248,0.998861994568381,0.00232071606752049,-0.00963117965588175,0.00254842695350826,-0.173419869502782,-0.0861376672765422,0.0715391514167134
458,458,-0.15595477599501,0.144296415143016,0.998911311428727,-0.000716797114723176,-0.0106861526039282,0.00396206650914533,-0.22707062783114,-0.104369458939462,0.119069549000904
459,459,-0.156202725553202,0.14415709020368,0.998967604293162,-0.00337388431016899,-0.0122016855411416,0.00527971253452265,-0.211770577811966,-0.179043602984106,0.0991538369195306
460,460,-0.156460622224194,0.143978656251416,0.999030220752041,-0.00647580536348452,-0.0142805964466734,0.00597626138269329,-0.123310212891309,-0.257770600128886,0.103464304327072
461,461,-0.156719098030292,0.14375761311025,0.999107775834447,-0.00870323294511485,-0.0169191959885614,0.0061604571102032,-0.0636538151586847,-0.32205660451337,0.0490988539610918
462,462,-0.156983178910232,0.143497096106541,0.999200850804806,-0.0109007592126312,-0.0204058307661486,0.00606735444719629,0.0584170219039637,-0.321056612765189,0.0461363181032223
463,463,-0.157266902695853,0.143202465541324,0.99929674748067,-0.0126538537440308,-0.0242805560044998,0.00585481856914639,0.0354828897223797,-0.263451683057685,-0.0581956926049756
464,464,-0.157584322963533,0.142879029705498,0.999382754026032,-0.0146065610177947,-0.0289846404712789,0.00552198474224038,0.0429611481459754,-0.181112087673324,-0.119785536220877
465,465,-0.157949509358395,0.142532032017934,0.999446140014851,-0.0175524494083022,-0.0331404737584354,0.00494977773108408,0.0215936967731055,-0.201498487872033,-0.157869800523969
466,466,-0.158379972329058,0.142169192441053,0.999482226073662,-0.0217485055420637,-0.0369098518377969,0.00390135182565212,-0.0575614079352305,-0.235580999712983,-0.158319170909354
467,467,-0.158866374716035,0.141786937856915,0.999499689910916,-0.0267519677160277,-0.04094282785078,0.00236776948387093,-0.107662609850321,-0.220336829362318,-0.16520494244745
468,468,-0.1593825099999,0.141373566758775,0.999505782932141,-0.0327242478389154,-0.0445786290863461,0.000724925922349687,-0.0838693497874716,-0.300466905057171,-0.107275320398245
469,469,-0.159902151164265,0.140917453081982,0.999507697816569,-0.0381687860660053,-0.0479423412907098,-0.000731183623190256,-0.0615114388195368,-0.333443102028832,-0.133664124061275
470,470,-0.160399045370089,0.140407053531107,0.999512564930043,-0.0429279379695234,-0.0503095058148529,-0.00153779541582687,0.0648158737503617,-0.426250618523367,-0.0828447188167024
471,471,-0.160894678826841,0.139832257517398,0.999519342396338,-0.046191069258395,-0.0529974908146977,-0.00152060200571018,0.105346590444584,-0.387896811224794,-0.0740308714502173
472,472,-0.161406511047775,0.139200882073529,0.999523398907309,-0.0489192519362927,-0.0553101482910804,-0.000929143665070791,0.172405789930549,-0.389368078483645,0.00370947122817743
473,473,-0.161902228103119,0.138528323286624,0.999526360564638,-0.0510080487783655,-0.0581608644212115,0.000102164681908049,0.219284839988216,-0.314542153719597,0.0474308666333179
474,474,-0.162349530738261,0.137829950219047,0.999529746846441,-0.0525296855990182,-0.0609490232080418,0.00126212734256572,0.209342544248106,-0.278535318067896,0.125128153288179
475,475,-0.162716140840317,0.137121096387892,0.999534972281942,-0.0528290931570749,-0.0649035628657609,0.00238831693966834,0.159227260713517,-0.155446910985331,0.17868848273571
476,476,-0.162952765773599,0.136390631409566,0.999542560084847,-0.0510866371480576,-0.0693793062512764,0.00362988096473663,0.0723812089654012,-0.175814588760616,0.133601687230059
477,477,-0.163080896183432,0.135628429290922,0.999551425530295,-0.0478828249296048,-0.0741521041151115,0.00522590209098687,0.0425033385105733,-0.166577529764341,0.0804740661476899
478,478,-0.163174462986031,0.134851205536354,0.999560532395738,-0.0439421452332502,-0.0786402616455459,0.00683694239668555,0.0611377691198187,-0.263679576362126,0.104832594508098
479,479,-0.163307418371048,0.134075567513663,0.999568883370407,-0.0406587727343967,-0.0820038193845384,0.00811399764013395,0.0650499921370654,-0.453609080005106,0.136755724043345
480,480,-0.163553741181463,0.133318024906031,0.999575515765614,-0.0384689564184889,-0.0844965968853111,0.00875199253030679,0.13000018851798,-0.483730118640768,0.0961151972333876
481,481,-0.163915921268012,0.132592893092523,0.999569462697172,-0.0361377705889623,-0.0866243202646075,0.0084290571549612,0.145847273985051,-0.550918081854586,0.0148444213671885
482,482,-0.164344722154722,0.131888921681327,0.999551321673804,-0.0330875485892365,-0.0890313835206758,0.00720744062294449,0.069110083451133,-0.506190558372622,-0.153281269757898
483,483,-0.164836525988921,0.13118428239055,0.999537530107769,-0.0314416907974362,-0.0910854406282842,0.00565605753631655,0.177575864136406,-0.448162446422812,-0.136114166139086
484,484,-0.165387662983721,0.130457247766762,0.999544565703106,-0.0313031745437156,-0.0920569950937568,0.00448538810071996,0.200159340048445,-0.471643236000211,-0.095149064729778
485,485,-0.165994405804488,0.129686183617356,0.999588949802648,-0.0324722141399402,-0.0932805670955063,0.00443631398154782,0.0830037825834492,-0.424757033949605,-0.0957551528922711
486,486,-0.166689514974241,0.128856160508425,0.999684075044241,-0.0362716989877648,-0.0951125698617009,0.00547473834258427,-0.0476677512038372,-0.483609266925285,-0.0647069503528529
487,487,-0.167475436525774,0.1279816577037,0.999819018080324,-0.0433339681904095,-0.0957727676472959,0.00728442720229199,-0.0664629320703334,-0.564918243104466,0.094617958422522
488,488,-0.168302939869778,0.127085164386186,0.999973835384755,-0.0511127396006491,-0.0989057129043561,0.00963633128501744,0.0529494760054554,-0.537548247078641,0.22594836645979
489,489,-0.169122813448642,0.126189094959961,1.00012855058206,-0.0572873577552123,-0.102687343507231,0.0122635963766109,0.000733417304569352,-0.364728605316545,0.288920028979927
490,490,-0.169885852888966,0.125315803385687,1.00026316829777,-0.0606982978732518,-0.104685523784031,0.0148775840346369,-0.0995765661559867,-0.179152705187551,0.373665257477216
491,491,-0.170625680689428,0.124477218630724,1.00037744156887,-0.0611784292005757,-0.102634786653304,0.0180014404374076,-0.278061220688546,-0.01769868703904,0.36589483278571
492,492,-0.171375038712862,0.123658276092441,1.00048472138596,-0.0621595904278267,-0.0958932875228077,0.021820178855953,-0.299954358661616,-0.00613111554442384,0.416788182014562
493,493,-0.172083405080246,0.122840905443606,1.00058552646598,-0.06321109262331,-0.0869695845423766,0.0254639684631602,-0.362726594739975,0.109581538821017,0.487271631745744
494,494,-0.172700304054026,0.122007156731515,1.0006805068511,-0.064318245792909,-0.0791242646289888,0.0282737211142679,-0.470919419740947,0.143928318029993,0.371727486218468
495,495,-0.173175316447892,0.121139217886547,1.00077044255149,-0.0574794028797162,-0.0776558798784523,0.0288239431869613,-0.216585022629056,0.0821831185602589,0.0398070856655965
496,496,-0.173462404636892,0.120215245456262,1.00086654374242,-0.053649983467867,-0.0782230787076923,0.0269372975099371,-0.0875925106088274,-0.0819910916976725,-0.116724475592415
497,497,-0.173595167141119,0.119247539948545,1.00096889624578,-0.0488101454557533,-0.0795078222272814,0.0230092556545642,0.0552565175283458,-0.185534000237318,-0.0937397756312661
498,498,-0.1736426978109,0.118269469062776,1.00106154949985,-0.0425042877142369,-0.0819421555955586,0.0180426187659603,0.0435718550458867,-0.195117145499635,-0.184735842051724
499,499,-0.173674132133146,0.11731412483417,1.00112832509652,-0.0349240275329024,-0.084505318786991,0.012856183372493,-0.0190664408803234,-0.246889852476307,-0.427241863276881
500,500,-0.173758647408704,0.116414296088269,1.00115279975529,-0.0288734985831988,-0.0849690877696836,0.0080557911719641,0.0404032279740005,-0.253110363859195,-0.493626985007532
501,501,-0.173919676093712,0.115575183257453,1.00113466424299,-0.0247377518937215,-0.082363604861399,0.00359328123251709,-0.05173284896611,-0.334692020361587,-0.428632449364062
502,502,-0.174111168218878,0.114774673733442,1.00108493961575,-0.0221250869992233,-0.0793406748661274,-0.00101543240933813,-0.127150815918364,-0.33958693245858,-0.41131542044199
503,503,-0.174298105922247,0.114004462650112,1.00100399613773,-0.0205833277697729,-0.0768646383859689,-0.00561154427771422,-0.117565068972778,-0.261572722665979,-0.373396142784579
504,504,-0.174445481112328,0.113256378244461,1.00089219512882,-0.0181307379663082,-0.0744893039711786,-0.00997246883585321,-0.239928772886349,-0.215799626422582,-0.335266104745656
505,505,-0.174518299340622,0.112522387560508,1.00074989119377,-0.0149023196803181,-0.0733083402841823,-0.0140366660800999,-0.103659532702883,-0.0343657574383143,-0.303487886457528
506,506,-0.174499391389603,0.111817204854019,1.00057406535425,-0.0092483391876145,-0.0726413538279716,-0.01767229320564,-0.183932076998758,0.0348695196584331,-0.393498168068403
507,507,-0.174412156134636,0.111146275109851,1.00036453547676,-0.00207581617986381,-0.0722267560892131,-0.0209964454310454,-0.273652740795193,0.108073085908368,-0.3544890252789
508,508,-0.174282498476487,0.110487771590492,1.00012589403499,0.00318328422453257,-0.0716628216111797,-0.0243748594593218,0.0432338689550545,0.197774262575584,-0.351470352634812
509,509,-0.174136367962819,0.109819875061228,0.999862720664859,0.00727530080455716,-0.071607824405607,-0.0277761663203505,-0.0121703154511481,0.369954957159596,0.185090462886527
510,510,-0.173999752366542,0.10912078060272,0.999579581205782,0.0150371607904677,-0.0728360531381837,-0.030796237039006,-0.542901261449599,0.33051066964091,-0.740610002379923
511,511,-0.173869758134188,0.108371463165329,0.999274827068877,0.0130182710506182,-0.0750874610085208,-0.0345735180860677,0.224884803355583,0.498622135835086,-0.525068878858962
512,512,-0.173729259852882,0.107586654880322,0.998945510591955,0.011980431099343,-0.0767625406961827,-0.0385961638623068,-0.0176531993916223,0.406800293030976,-0.775580834398005
513,513,-0.173582877487032,0.106795137086135,0.998594130081559,0.0110349743075492,-0.0761047898316561,-0.042652599127056,0.0328924362785444,0.17134869617228,-0.853367043008255
514,514,-0.173435182388547,0.106025590806354,0.998223043578294,0.0105799777852315,-0.0736825655761776,-0.0463697649034778,0.119780086799587,-0.00600460740934244,-0.666793600586006
515,515,-0.173290699082748,0.105306589606516,0.99783447107507,0.0127633598199288,-0.0699091489358364,-0.0491349026913879,0.000183885704516294,-0.123400247378853,-0.397402647066869
516,516,-0.173151126274795,0.10465179006111,0.997412397261273,0.0134750002300626,-0.0656344521410951,-0.051125100892762,-0.23892314664547,-0.228286594058527,-0.352769779202725
517,517,-0.173013548763193,0.104042119927172,0.996955125613754,0.0150998931613953,-0.0609510141258421,-0.0526891940072514,-0.315881863055428,-0.229483292334142,-0.263041288116212
518,518,-0.172875458701005,0.103456965556228,0.996486189150894,0.0169123813227214,-0.0568857231368482,-0.0535972293318967,-0.242756175150681,-0.118048711113991,-0.142431907485353
519,519,-0.172734251249335,0.102875696268602,0.996029047120026,0.0170185793579403,-0.0532783677889076,-0.0535330834005195,-0.0176689966966908,0.128640724473151,0.105897915083451
520,520,-0.17258722685031,0.102277657296285,0.995607100648317,0.0173773462282085,-0.0495881530816874,-0.0521157119479882,0.00618587673506606,0.233271768218112,0.129399858366298
521,521,-0.172406219882787,0.101680828607805,0.995182959669903,0.0178519625770574,-0.0471052399331423,-0.0492800551937696,0.0863452300738575,0.400170868224911,0.225739211246827
522,522,-0.172192898884913,0.101098880330977,0.994740671293113,0.0184049073868477,-0.0463211043184989,-0.0453217850727587,0.168460102762469,0.550942308067156,0.276665504875687
523,523,-0.17198922282499,0.100504661141648,0.994335794158835,0.0189612741718902,-0.0467411222994549,-0.0403016441781701,0.135742600004794,0.646423472857713,0.427012112268311
524,524,-0.171837121978867,0.0998710179268703,0.994023934620156,0.0187142377259719,-0.0479577701417177,-0.0345237317335005,0.117601902267209,0.648335183708234,0.495288277831799
525,525,-0.171778508996749,0.099170801711996,0.993860739142112,0.0181551945754526,-0.0503154789252259,-0.0280807880253058,0.0233688511188838,0.706828076373871,0.479759270550162
526,526,-0.171822749268972,0.098389814398448,0.993877398837614,0.0159739527604617,-0.0537330129013624,-0.020528228850513,0.106056354699606,0.654209696853224,0.628378745058979
527,527,-0.171941729740162,0.0975460024542995,0.994036694572472,0.0124316191073872,-0.0581321629919825,-0.011475204555383,0.07298785025464,0.768722064795513,0.682737658640095
528,528,-0.17212117995667,0.0966604685901894,0.994291636811254,0.00785702873826399,-0.0628620608140438,-0.00195321689737262,0.186998152590528,0.708184122680553,0.764319636676547
529,529,-0.172346865950519,0.0957543609190313,0.994595166064001,0.00268109806350243,-0.0670836881327542,0.00712688011388888,0.297337040810899,0.682951875076481,0.761531575365724
530,530,-0.172604576758681,0.0948488774427593,0.994900149764995,-0.00142484320384181,-0.0701599927907177,0.0147361685353839,0.420383743112732,0.654988675371327,0.677052100859525
531,531,-0.17293056110795,0.0938989214135151,0.995232213068749,-0.00453755266216655,-0.0722520170177644,0.0210134326532706,0.450966986163706,0.526728446286046,0.558822885462307
532,532,-0.173334256394321,0.0928902816090024,0.995622532677164,-0.0066723344484583,-0.0751844087777699,0.0265097896975361,0.362423784359883,0.567302843630331,0.472902013293971
533,533,-0.173761237663379,0.0918905655770774,0.996032257734442,-0.00784110747622293,-0.0777772626115882,0.0312367484363142,0.277541917579588,0.486045627943975,0.344197809604883
534,534,-0.17415707410378,0.0909674470844189,0.996422557866786,-0.00796570911778216,-0.0786677686301508,0.0354563855519259,0.16346081328363,0.450141581023501,0.188296632980754
535,535,-0.174467334183923,0.0901886619167504,0.996754635206957,-0.00778230011552046,-0.0773373489917044,0.0389385665260996,0.142983224380757,0.443674886185015,0.200030703818168
536,536,-0.174670814248187,0.0895761695147413,0.997033159934736,-0.00684818641718723,-0.0721048618801732,0.0417815990820052,0.0721518991975032,0.380875310894507,0.241113379631633
537,537,-0.174803761372961,0.0890848846507381,0.997283869442621,-0.00482296488119768,-0.0639504027693078,0.0439205335958863,0.0217608823800392,0.329102376269508,0.264837869968937
538,538,-0.174897925677414,0.0886820097792318,0.997499613073927,-0.0024317280290389,-0.0554229020020903,0.0452315112299465,0.0322160034830443,0.369791996474857,0.208022816995028
539,539,-0.174985060114059,0.0883347398182933,0.997673257905689,-0.000867632869569685,-0.0478815585564436,0.0457139716398479,0.0788518645785645,0.446978597859304,0.126869499723422
540,540,-0.175096917888441,0.0880102607205511,0.997797676157084,-0.000948456891200977,-0.0423728071551898,0.0453003981266481,0.193380873159481,0.531766024687548,0.0797877513588585
541,541,-0.17524440093039,0.0877185367458015,0.997855473837669,-0.00261236507333973,-0.0385543506316498,0.0438856528715976,0.181521784615157,0.500903549105268,-0.010945254807579
542,542,-0.175406326080709,0.0874814677426844,0.997851390514906,-0.00544312784928798,-0.0351303579127672,0.0415669669825257,0.114940399198148,0.506004453829324,-0.111876115920978
543,543,-0.175566328578029,0.0872841291931853,0.997811501641931,-0.00806917462859441,-0.032517344235415,0.0385369685974814,0.0564542212038014,0.380751420202831,-0.122338032809321
544,544,-0.175708053003862,0.087111599737936,0.997761878961544,-0.0101242728661222,-0.0305831940146656,0.035148885891293,0.0317259710599279,0.332124295736043,-0.03089580076994
545,545,-0.175815148262456,0.0869489650413109,0.997728585929904,-0.0111724087354481,-0.028474217120663,0.0319518831683175,0.00374038023386974,0.192098097843585,0.0138520023378522
546,546,-0.1758806083095,0.0868061265041958,0.997709557616304,-0.0112069451190505,-0.0259326992239588,0.029125988598317,-0.0340949704544372,0.098605922635005,0.08780267218305
547,547,-0.175915342389313,0.0866930303091926,0.997687419518162,-0.010813390683612,-0.0231984931157568,0.0263565746443128,-0.109507695952171,0.0931022383393803,0.0993205805420038
548,548,-0.175929872015775,0.086594829488694,0.99766527070231,-0.010132781311908,-0.0204610629089326,0.0235122768161575,-0.170713449320508,0.124807113641331,-0.00174009659397424
549,549,-0.175934718491768,0.0864966783327483,0.997646214012866,-0.0089222392649594,-0.0171070315771899,0.0204519491110918,-0.277847675920281,0.173699376650453,-0.206834802950684
550,550,-0.175940403240243,0.0863837335988472,0.997633354935944,-0.00754257519843704,-0.0130063880493762,0.0170839685612165,-0.250200614296976,0.0934327362969561,-0.377797773382596
551,551,-0.175941134565682,0.0862269625780275,0.997622210780728,-0.00691567945841746,-0.00930472614306487,0.0127844958081267,-0.0883376685286551,0.125491731276012,-0.455953486241296
552,552,-0.175929885131187,0.0860362573738266,0.997610736831884,-0.00659629736389423,-0.00766381363751416,0.00769293403503886,0.0119799869338723,0.117085784215771,-0.449452117618593
553,553,-0.175915330847758,0.0858551697858304,0.997605682994654,-0.00633053872168728,-0.0063583827499895,0.00249897969970342,0.0896344681508197,0.17357220591532,-0.376905089225462
554,554,-0.175906164837402,0.085727260429889,0.997613776391655,-0.00587360379826841,-0.00468001054227882,-0.00231017588023081,0.0797804222433421,0.192112728531809,-0.304288425790646
555,555,-0.175911098731258,0.085696094578214,0.997641728841158,-0.00430833365751953,-0.00221298695795721,-0.00607798751054851,0.0859887588117889,0.248554727400852,-0.322280190348187
556,556,-0.175927898231249,0.0857767940684573,0.997692028918742,-0.0016330469352206,0.00121225034518826,-0.00888796179142836,0.0720615413651266,0.284210734393472,-0.275512120848032
557,557,-0.175950777324003,0.0859403137630532,0.997760205774654,0.00169097978982383,0.00538932808691027,-0.0110588551744102,0.122739789638411,0.3815857118226,-0.208231110535939
558,558,-0.175983125744413,0.0861639663809317,0.997842538918915,0.00567910733472916,0.0103616012619066,-0.012537048816158,0.0904717300093145,0.370337575565205,-0.268939398810697
559,559,-0.176028325753706,0.0864250628952987,0.997935311868546,0.00913997496669824,0.0154556892173347,-0.0132958610950041,0.0804196999669641,0.379445028408221,-0.296060285493809
560,560,-0.176089753022114,0.0867009154357566,0.998034811725462,0.0113115326092995,0.0198796123351832,-0.013386574538087,0.102682877534847,0.312588725800143,-0.247273925349205
561,561,-0.176184951191549,0.0869974118217246,0.99813591493518,0.0109557547776,0.02279413358857,-0.0125423052553593,0.136492270929519,0.334467489744075,-0.133312967821078
562,562,-0.176311674717075,0.087329650826375,0.998241167600926,0.00881852226871374,0.0246660326583916,-0.0107436735991517,0.10189177716959,0.286177712970912,-0.0327656107209554
563,563,-0.176443609227652,0.0876887769912285,0.998358364547898,0.00608609525099025,0.0268546184320371,-0.00837110121460764,0.0754304549618753,0.201492894248159,0.0248016067923298
564,564,-0.176554436350717,0.0880659513638745,0.998495294356036,0.00336649331676339,0.0298036937013514,-0.00593414881590141,0.104562849968255,0.0981810734762365,0.118437613804122
565,565,-0.176617835063368,0.0884523549760467,0.998659737981471,0.00188983090831111,0.0329391957226162,-0.00376829308892395,0.125076087987018,0.124425301352732,0.0597478538722599
566,566,-0.1766777107139,0.0888492016671793,0.998871222015336,0.00183302385281037,0.0366524984024937,-0.00193841729870253,0.180136360604237,0.114673703750949,0.0701511431542066
567,567,-0.176751608713277,0.0892623956137821,0.999124699781528,0.00317336095141973,0.0405253435162973,-4.99759349366786e-05,0.139010899034873,0.188924955844294,-0.00357537163174891
568,568,-0.176773674494515,0.0896901681911679,0.999391026256745,0.00438645405021141,0.0446616852985036,0.00164324620184036,0.194192151030642,0.329555656459098,-0.00116241091323252
569,569,-0.176678062894003,0.0901307430513651,0.999640964158233,0.00541252734147536,0.0494514712209483,0.00303837729910105,0.173176412521784,0.404624869243332,0.0157770002312863
570,570,-0.176398938517964,0.0905823342740825,0.999845191016525,0.00652712394753225,0.0547807156672929,0.00410640899294282,0.0631951881938609,0.517261964747931,0.0351247083765058
571,571,-0.175833070586619,0.0910244320453658,0.999998756180902,0.00697711309016175,0.0618079705761675,0.00484705471315165,-0.0523554839413138,0.583199416785077,0.0156532170638725
572,572,-0.175024386796315,0.0914582540906604,1.000121149903,0.00428924700660213,0.0711694635786377,0.00572865056942777,-0.0620469864036454,0.542688793340392,0.0356796705701126
573,573,-0.174127791935786,0.0919145825789097,1.00021973885647,0.000965796854675437,0.0806457222173313,0.00665203638329697,-0.081019427527639,0.444554106933225,0.421763318033531
574,574,-0.173298180890214,0.0924241845103085,1.00030195368731,0.00363712962971813,0.0870604710461673,0.00807197944330126,0.161927411394375,0.433024859862709,-0.242250836740046
575,575,-0.172690442494432,0.0930177933788467,1.00037530488741,0.00414980056768705,0.0917559078572766,0.0084725685551043,-0.0358397453457023,0.482970963914521,0.187482503928636
576,576,-0.172354863865742,0.0937169738156149,1.00042655356769,0.00755755631957206,0.0932264476586095,0.00956679846320461,0.194963315303766,0.352358160516046,0.202485154352842
577,577,-0.172188251603415,0.0945011143161312,1.00045106288651,0.00759662379580881,0.0924598738538274,0.011707305653801,0.211490946431096,0.355692694383403,0.29742121967174
578,578,-0.172115246868381,0.0953376530313348,1.000469270926,0.008183389854457,0.0910441174268822,0.0138357709957534,0.118336159128422,0.315257938379348,0.321231234622025
579,579,-0.172060443223835,0.0961940778819573,1.00050148145115,0.00951272950795905,0.0900639211161446,0.0160186912421793,-0.127979915308148,0.285917423555061,0.183500935425356
580,580,-0.171948385301381,0.0970379454667142,1.00056784199659,0.00996631089745789,0.0891414530089246,0.0175426993015989,-0.181142906455068,0.286854647980015,0.245035163801789
581,581,-0.171776141507076,0.0978787129630518,1.00066683282725,0.0109268301527255,0.0884350954989428,0.0182875683023658,-0.32832049189018,0.361982713768177,0.198151504596472
582,582,-0.171594006671988,0.098737952735475,1.00078521569483,0.0127514818552208,0.0883867415758523,0.0184965668928402,-0.375628382529032,0.314499054404146,0.133238387239093
583,583,-0.171406318369508,0.0996014701552714,1.00092536767314,0.0156505972235501,0.0890219692776266,0.0184993895915276,-0.423362910398457,0.335195985744842,0.0258277204953435
584,584,-0.171217386153396,0.100455095965383,1.0010895638103,0.0172176456677065,0.0894481724534982,0.0185191804242876,-0.328098731260935,0.235635915101971,0.0326118071919177
585,585,-0.171031489577509,0.101284685183722,1.00127997284457,0.0170027987762731,0.0889411869223844,0.018822246667201,-0.17392673971585,0.17338484932351,0.0657027576357115
586,586,-0.170828982752675,0.102080901360087,1.00151296640202,0.0150100792556818,0.0878685619227166,0.0195328469102437,-0.0522055143901428,0.16494768207921,0.0780318448923711
587,587,-0.170606957304103,0.102853177963929,1.00178705961282,0.0110271740886049,0.0845181068835745,0.0206702218185779,-0.0341058983232622,0.242587948798515,0.203205786955848
588,588,-0.170394777056945,0.103615557100597,1.00207756754251,0.00564884676781495,0.0800972671948088,0.0219206985133936,-0.167319885172211,0.143881076166079,0.157147476302732
589,589,-0.170221800394184,0.104382103876188,1.00235981011411,0.000418190642614325,0.0772824518037048,0.0227617513727577,-0.26234075146657,-0.00681081788203849,0.0866180634776241
590,590,-0.170117379152845,0.105166913836819,1.00260911765659,-0.00271888057091036,0.0757509360979112,0.0228046424692525,-0.28337851402599,-0.115217029943285,-0.0376067592025498
591,591,-0.170105718337151,0.105954337265007,1.00282842802433,-0.0046766303865768,0.0739997841347527,0.0219422823410499,-0.0192530738886897,-0.0259809960339539,0.0056352746294758
592,592,-0.170167143276023,0.106735123294539,1.00303419497796,-0.00550604426850878,0.0715370131114222,0.0204908893983603,0.0808172370869453,0.158031449208949,-0.00994666360599144
593,593,-0.170265251483863,0.107532933428878,1.00322207060795,-0.00465570555750649,0.0698105372621383,0.018605700587501,-0.0513514573703795,0.0853726630403342,-0.209306841507175
594,594,-0.17036372953278,0.108371338277676,1.00338774114712,-0.00317052071450236,0.0714573950591548,0.016434759170107,-0.265238495099161,-0.0967317610664153,-0.303928149140583
595,595,-0.170426349363302,0.109273806730653,1.00352692363654,-0.00303860828996717,0.0745829240115104,0.0139487615936006,-0.210098105640167,-0.169146858093541,-0.335393787225385
596,596,-0.170439042540171,0.110260619425233,1.00364725026351,-0.00504660026809271,0.0788427950318425,0.0109299814824583,-0.16636740376947,-0.1476241010197,-0.398464810319685
597,597,-0.170426110713065,0.111315982038226,1.00375177605467,-0.00801727645383526,0.0846230918241149,0.00737196054822076,-0.115147503776258,-0.174606198587456,-0.414236593451163
598,598,-0.170408899847492,0.112409276327261,1.00382928666703,-0.0117372967875476,0.0902769283647578,0.00349358249047182,0.0313693377040116,-0.0905788434470704,-0.437737579045076
599,599,-0.170408697874371,0.113510030773067,1.00386845864873,-0.0156678356081288,0.0956626436542651,-0.000403434748753914,0.183893869378647,-0.107591587623017,-0.333690670350746
600,600,-0.170446735959385,0.114587895044765,1.00385787334558,-0.0178593820752619,0.0984947149535775,-0.00401114000561151,0.113875317202744,-0.00516036718532317,-0.36339277867733
601,601,-0.170547251991579,0.115659925560258,1.00378292977657,-0.0185192304148079,0.0983486240192893,-0.00731683996899072,0.0206192734285857,0.0719431128629301,-0.377833436892695
602,602,-0.17069609387462,0.116746477851473,1.00365124055476,-0.0182594718822502,0.0962180540745485,-0.0105232529407918,-0.0363452691976484,-0.0361596420619943,-0.435758197144902
603,603,-0.170856864796268,0.117822172034612,1.00348465663756,-0.0187027936342559,0.0919393468157678,-0.013601093586626,0.179547319296081,-0.104392846703608,-0.387632335778792
604,604,-0.170993166871683,0.118861603139337,1.00330504560006,-0.0189523384504993,0.0874078841559517,-0.0164586697410151,0.320105382521687,-0.116508259511212,-0.295716685062045
605,605,-0.171068598957192,0.119839374131173,1.00313429122003,-0.0182785478975307,0.0838107913117144,-0.0189668833300413,0.343672808078773,-0.175791046980354,-0.244103439395668
606,606,-0.171078401324979,0.120737345176584,1.00297096913296,-0.0118245932552141,0.0826060243381803,-0.021194033245685,0.256824403815056,-0.13445041493176,-0.502649051544436
607,607,-0.17104683070163,0.121572502448058,1.00280063530855,-0.00396346884511094,0.0811532885228233,-0.0227401745148587,-0.108227971897757,-0.229580566658223,-0.626535088704542
608,608,-0.170981012926169,0.122372099665712,1.00262568503764,0.00301346764165493,0.0785388318123689,-0.0238919817159725,-0.293386004291888,-0.256451801028882,-0.609562896665783
609,609,-0.170888087618638,0.123163297875452,1.00244854557833,0.00794497263290464,0.0748384123235185,-0.0249276557736285,-0.389404231990065,-0.230520169689464,-0.439296379352392
610,610,-0.170775216602917,0.123973155439883,1.00227166747808,0.00894473345731302,0.0704793947942054,-0.0261635906324875,-0.321902133581043,-0.195220954106848,-0.0146330671057458
611,611,-0.170636290201845,0.124831114311298,1.00208919975291,0.0139133843015258,0.0687266932315385,-0.0288612923892727,-0.172718113941789,-0.180094475042375,-0.135786421286241
612,612,-0.170466573487723,0.125718981776171,1.00189991397761,0.018515024467646,0.0685761468949693,-0.0323113861036269,-0.117432110093859,-0.147705989912938,-0.251084925684361
613,613,-0.170275336786289,0.126592264496514,1.00171308163913,0.02234764439497,0.0678820679171835,-0.0358973975930618,0.0249524775200379,0.00884512774028068,-0.268644706175724
614,614,-0.170071877827426,0.127406430895031,1.00153778613503,0.0248314153290883,0.0669394579078968,-0.0388417613481181,0.0919703833219992,0.064056411405516,-0.364831160134374
615,615,-0.169865509480645,0.128116919189609,1.00138291358217,0.0261725240829915,0.0650889461851477,-0.040615262943353,0.219680960692891,0.0527350008178668,-0.432839163041363
616,616,-0.169639250511832,0.128680077895341,1.00125099437744,0.026459500151242,0.0610978505035637,-0.0410732140012266,0.272166417354248,0.0846550579840727,-0.344642698375051
617,617,-0.169387015130592,0.129125284157626,1.00113607073837,0.0258646983117302,0.0553404979024126,-0.0407860644691352,0.348784949787551,0.0507412576840236,-0.27673317937793
618,618,-0.169134433405023,0.12951770218805,1.00103414239215,0.0247321084078549,0.0488368526826977,-0.039476239853376,0.295812038170315,0.0353906247355363,0.00611264996568146
619,619,-0.168907116775102,0.129922745164913,1.00094119130963,0.0231086603028267,0.0427805069159473,-0.0373327820399325,0.348076664785828,0.0482633679225992,0.184035360932917
620,620,-0.168730659848985,0.130406069416013,1.00085317699497,0.020859290196601,0.038506792326193,-0.0343850966607274,0.395347725797037,0.0354783877180385,0.413543327763831
621,621,-0.168632728686196,0.130988970920208,1.00078022660228,0.0198381092552873,0.0364942840693377,-0.0303346739026631,0.483703756762346,0.0551063102789217,0.411674005059628
622,622,-0.168596383535147,0.131628045007804,1.0007250303052,0.0196713714516887,0.0366928102542282,-0.0251069448338759,0.566398975849141,-0.036325180548417,0.428492371092724
623,623,-0.168580171144431,0.132292025841289,1.0006722416447,0.0213793569428097,0.0393978211243912,-0.0192004528425025,0.395324448968421,-0.141699330266968,0.226884031862806
624,624,-0.168542471300521,0.132949559846792,1.00060634423643,0.0223981448661218,0.0421071471505561,-0.01308463566209,0.469944910229323,-0.302210033865342,0.328605896058108
625,625,-0.168441511790419,0.133569200049739,1.00051167034137,0.0223349684152594,0.0439955594100399,-0.00727343048787464,0.382227977442195,-0.559093449770583,0.474851233648407
626,626,-0.168271641442267,0.134144071139398,1.00037336576737,0.0196848370083506,0.0444446743197981,-0.00159976901829875,0.269374185689647,-0.770607027344662,0.509014117313397
627,627,-0.16806044971355,0.134695327444174,1.00020153550798,0.0151897512412299,0.0435712327213105,0.00418131710115454,0.0944979210044068,-0.841555860544589,0.600911920618259
628,628,-0.167815969511514,0.135233464599296,1.00001778071268,0.0107674061524299,0.0422492034033258,0.00987806444435164,-0.231928157486419,-0.898924122579638,0.491754511531711
629,629,-0.167546267917227,0.135768905662078,0.999843607167909,0.00622057742006747,0.0406521086789987,0.0151352613349884,-0.308922726879608,-0.924576991820076,0.486797696947079
630,630,-0.167259437042958,0.13631199680226,0.999700437324245,0.00203206875574358,0.0396404002639534,0.0195618626166227,-0.261584175199875,-0.877666140374849,0.398790098817638
631,631,-0.166937975756309,0.136888033897015,0.999584329235047,-0.00300225783228718,0.0410188478391069,0.0232299839980042,-0.0400352788085467,-0.86063818219357,0.36925788260661
632,632,-0.166576379504433,0.137490131308268,0.999480562322508,-0.00998970353033097,0.0439183325067363,0.0263288382242604,0.305836706724496,-0.792836424517652,0.394653585795837
633,633,-0.166200772892784,0.138080260281551,0.999394340999904,-0.0170875064562771,0.0477759449704227,0.0287169679140471,0.39964125169852,-0.701381545354807,0.349563606438049
634,634,-0.165837308528499,0.138620337673453,0.999330869601621,-0.0224738690111359,0.0506216566128001,0.0304460039804225,0.351887901872806,-0.572683028298203,0.252315838944871
635,635,-0.165512164621172,0.139072237015044,0.999295354291552,-0.0253549662707306,0.0507271845291292,0.0313493842518125,0.275353309092463,-0.473044144159978,0.204454571377927
636,636,-0.165231272384374,0.139416039920635,0.999292711201503,-0.0242413802330181,0.0478337208848864,0.0313684672392965,0.0512841079164931,-0.414459694094249,0.145321169828853
637,637,-0.164977171790041,0.139677030731373,0.999319180996042,-0.0203358826536793,0.0420499775877839,0.0305751349702028,-0.119970821948269,-0.312638910025999,0.032326498455108
638,638,-0.164740981963998,0.139884878752463,0.999367000666907,-0.0153051753871122,0.0357449598521602,0.0291062032496083,-0.0641428000952417,-0.355085198627085,0.0724962157805729
639,639,-0.16451383147107,0.14006927482399,0.999428450523084,-0.00925090462653854,0.0296777672615738,0.027208343553655,-0.111400301609316,-0.417783063967917,0.036939587550453
640,640,-0.164286851027642,0.140259930302109,0.999495843156582,-0.00370079672429135,0.0245633495780683,0.0252050028350577,-0.0982142545892267,-0.42484477388412,-0.0202358434871886
641,641,-0.164054332227624,0.140456815085275,0.999572836846582,0.00246932501278981,0.020851329871661,0.0228574505524538,-0.097514384131977,-0.427045589425918,-0.0986795789199572
642,642,-0.16382222172811,0.140640071714561,0.999664502726952,0.00918770893691843,0.018159954428745,0.0199649733505974,-0.0611299204953131,-0.417886823023978,-0.140712752892798
643,643,-0.163599120771733,0.140809694119709,0.999765306064301,0.0162336319113002,0.0161708768520941,0.0168440558363667,-0.0834886753494681,-0.438249521292246,-0.152089009123351
644,644,-0.163393619977664,0.140965683532534,0.999869729887998,0.0223521811517015,0.0142387924015505,0.0137791044617139,-0.144742216609371,-0.366745411417112,-0.186447663961605
645,645,-0.163214301803793,0.14110804232452,0.999972273458459,0.0264649973681572,0.0119638400152791,0.0111397420170447,-0.203907898153495,-0.329022267156082,-0.209831429306155
646,646,-0.163050819730243,0.141256370014352,1.00008143362281,0.0288535111295514,0.00978104481533877,0.00878722725288617,-0.265448537012363,-0.199542593973492,-0.249237503673896
647,647,-0.162897454066677,0.141410634389493,1.00020096517643,0.0301128814077604,0.0082767964405939,0.0065757346715953,-0.264154416256165,-0.231920461895373,-0.253685157257405
648,648,-0.162769730698013,0.141541391455098,1.00031826617587,0.0298416894772744,0.00677818121551495,0.00432238395405644,-0.193148951844663,-0.219183998530143,-0.165269725524505
649,649,-0.16268318668245,0.141619207058632,1.00042073295682,0.0280859985860112,0.00535731106569746,0.00211371224576938,-0.132848089515345,-0.239793947610155,-0.197102857069424
650,650,-0.162653364805875,0.141614662226304,1.00049575915479,0.0251395892677754,0.0045269648403996,-0.000192429984588057,-0.0628148108495545,-0.292100438825071,-0.168779137378018
651,651,-0.162696130195922,0.141514109991088,1.00053454521091,0.0211615560205527,0.003405134716763,-0.00294031126327903,-0.0390774872748336,-0.297128592769395,-0.148928696229492
652,652,-0.162801152397899,0.141337155176986,1.00054568038389,0.0157940512301832,0.00162822997000905,-0.00603350155954198,-0.0264110112662376,-0.29363179818841,-0.244337403607165
653,653,-0.162944654332641,0.14110428832337,1.00054262471712,0.0091007301237339,0.000599260824565778,-0.00884780178147644,-0.0200769077915431,-0.290873852321092,-0.375869290736908
654,654,-0.163102819549679,0.14083602467695,1.00053881052283,0.00223647496926244,-0.000501505835357158,-0.0108509228769773,0.0736546431979794,-0.140949758799597,-0.355286549410636
655,655,-0.16325179193922,0.140552893048929,1.00054764134854,-0.00469122436555121,-0.00200717438272294,-0.0114235423814283,0.164664944710299,-0.0231968731961772,-0.261192995152623
656,656,-0.163412263166045,0.1402459899942,1.00056967550572,-0.0127084824749051,-0.00257976498986063,-0.0100572911935248,0.0915629627071808,-0.024961173723696,-0.0737859667632868
657,657,-0.163600033940087,0.139901587838401,1.00059621693823,-0.0224451409863835,-0.00314662854890969,-0.00703296345129445,-0.0602507778491861,0.057624803833374,0.0608516889374331
658,658,-0.163783912144316,0.139533070175501,1.00062672385698,-0.032705314043627,-0.00435592182091388,-0.00312869679078372,-0.103025683216535,0.110950270020913,0.211040432822022
659,659,-0.163932744549423,0.13915397343777,1.00066057830375,-0.0423731777470592,-0.00641016931524736,0.000613135022020783,-0.157012152805006,0.1327121014743,0.406111285651307
660,660,-0.164015418238292,0.138778000324906,1.0006970762729,-0.0489129412206244,-0.00910105815723071,0.00341813861781057,-0.226497602737733,0.162458742738375,0.469013436636367
661,661,-0.164029129379444,0.138432101961326,1.00074274243146,-0.0508657995599088,-0.0118366758115573,0.00522206846445811,-0.287857561341464,0.160310295650764,0.402888962863594
662,662,-0.163994577252584,0.138107534575869,1.00079820588129,-0.049474226417359,-0.0142462820462596,0.00668399371279963,-0.295555153599178,0.168814346700307,0.234840789069957
663,663,-0.163915961345909,0.137764504454859,1.0008537602236,-0.0464098042339677,-0.0163463268687177,0.00782956206586927,-0.14314275756996,0.0587668246668787,0.0844521622903698
664,664,-0.163797531059894,0.137363097393578,1.00089956649216,-0.0419280571448243,-0.0200308603063118,0.00873585116473871,-0.0836768372431613,0.0161489602125152,0.0118079549257077
665,665,-0.163643589453788,0.136863267825443,1.00092565110963,-0.0367781566349873,-0.0257769989493653,0.0094018871255355,-0.127091722345411,-0.0532054149102723,0.0488314559654145
666,666,-0.16341235396491,0.136256857640673,1.00093325299936,-0.032026072146408,-0.0349314797954057,0.00978305977149701,-0.0756249894993302,-0.102088976225388,0.104888703568499
667,667,-0.163101038502651,0.13557079206041,1.00092888668378,-0.0269868215557131,-0.0475335243357759,0.00985908715204755,-0.135417872937249,-0.151147872998434,0.129260347987173
668,668,-0.162772469236551,0.134817334789241,1.00091035291107,-0.0215207243022418,-0.0616633937431842,0.00948904049094754,-0.187443169083877,-0.316065134027344,0.112228674757209
669,669,-0.162489453565729,0.134008472039817,1.00087540509711,-0.0148745052091304,-0.0752779326437958,0.00863106006403403,-0.197133697529382,-0.504376558302498,-0.039914588587908
670,670,-0.162314779574501,0.133155947590576,1.00082176232547,-0.00726843400609433,-0.0873149397637249,0.00728428396315542,-0.181210979178712,-0.577922002122299,-0.0751544497968967
671,671,-0.162252840997916,0.132239227688478,1.00073726806391,0.00265952863330848,-0.0976796501475657,0.00514283061488056,-0.179743769364673,-0.756560277906025,-0.214355099902154
672,672,-0.162261839284797,0.131250054467155,1.0006232132741,0.0145545147986568,-0.107813657828777,0.00200261676887261,-0.127707437106357,-0.794483426907355,-0.191971843036676
673,673,-0.162335228794164,0.130218522094651,1.00049753515055,0.0266166110294392,-0.117348119315253,-0.00148099049229759,-0.0126682887953318,-0.768924432433186,-0.186007211722807
674,674,-0.162466436856156,0.129174813486598,1.00037823014722,0.0380398654501743,-0.12488452130923,-0.0047203678770398,0.0573853719703529,-0.701264548038596,-0.298366793197251
675,675,-0.162648873607157,0.12814917609193,1.00028334274973,0.047036000745675,-0.13134857337107,-0.00693004142985672,0.131260646260316,-0.596289250859676,-0.309006940892362
