,Frame,CoM pos x,CoM pos y,CoM pos z,CoM vel x,CoM vel y,CoM vel z,CoM acc x,CoM acc y,CoM acc z
0,0,0.0524055404710986,0.089922315973112,1.00400239458716,0.00446799500944878,-0.00209192476339007,-0.0052539071427875,-0.0238536845414372,-0.00185981996860746,-0.00235359388526918
1,1,0.0524989778420202,0.0898872550176764,1.00395700680392,0.00408973170223867,-0.00275166267485299,-0.00493200442603017,-0.0666600030701272,0.0369440197008503,0.0202864760226921
2,2,0.0525952965057385,0.0898522133208677,1.00391023674086,0.00334616289967957,-0.00340001347901723,-0.00462079016393216,-0.0443012361812251,0.0481312516628429,0.0452986427371557
3,3,0.0526901696724968,0.0898171632876907,1.00386416535427,0.00263649785014016,-0.00388591172766766,-0.0043198578381062,-0.00881899433377603,0.015084979364412,0.036979523394894
4,4,0.0527792710941681,0.0897820773194943,1.00382087282419,0.00201343155718071,-0.00421928176635414,-0.00400611521033994,-0.00962139079036033,0.0226765435407227,-0.00294711449314564
5,5,0.0528582750209087,0.0897469278127251,1.00378243861861,0.00146916301871436,-0.00453018399450007,-0.00370774351990463,-6.72736778521585e-05,0.00371080891619493,0.0373580499148787
6,6,0.0529271182704379,0.0897124148423992,1.00374986340104,0.00102454950345025,-0.00475029352175653,-0.00338691176269316,-0.0377902978836614,0.056207589277626,0.0387810065589415
7,7,0.0529886857781491,0.0896785569176198,1.00372175938704,0.000739052485312256,-0.00421331507676435,-0.00305087579000246,-0.0757567747361625,-0.0210029604116606,0.0335901674126663
8,8,0.0530430740307976,0.0896443038870719,1.0036966231598,0.000492594954826715,-0.00422070199049029,-0.00271486525685823,-0.105790706270343,0.0506110942959909,0.0418597671467841
9,9,0.0530903791921619,0.089608605363352,1.00367295158868,0.000357150622815335,-0.00408692369417601,-0.00243226894987628,-0.103669823660986,0.0356000521237829,0.0595647692441127
10,10,0.0531306971462824,0.0895704107545079,1.00364924178674,0.000225941521596967,-0.00402303751716013,-0.00220330843373127,-0.0699450653521353,0.0501450711938918,0.0401898023610065
11,11,0.0531622237962223,0.0895287387849291,1.00362558768707,0.000414800979565549,-0.00401437387988773,-0.00206281823715448,-0.0655594538848137,0.0598537759990217,0.024622026162518
12,12,0.0531848953478315,0.0894842893879009,1.00360299070146,0.000528452719098536,-0.00430455579009228,-0.00198545889473731,-0.0371889287977402,0.0724849891398833,0.0238158875566259
13,13,0.0532014180128348,0.089438533770513,1.00358130940067,0.000933845064416528,-0.00444360363342978,-0.00194687589661988,-0.0175221011235818,0.0231037505743529,0.0323326167414798
14,14,0.0532144980440885,0.089392943272049,1.00356040245134,0.00112539440012166,-0.00470378075836083,-0.00190764662704743,-0.011787108131762,0.0209167704894094,0.0322674453858237
15,15,0.0532268417300805,0.0893489893280159,1.003540128606,0.00123198167534417,-0.0049706708442096,-0.0018068059214673,-0.0599669712676575,0.0234752192294954,0.033595753412335
16,16,0.0532397735303431,0.0893064995055953,1.00352048975599,0.00099913812087138,-0.00481984094130832,-0.00167188244293135,-0.0407359969007201,-0.0124984345735574,0.0557146393621108
17,17,0.0532514895372857,0.0892644927212777,1.00350157997434,0.000614131773832222,-0.0048614057691415,-0.00149137181162187,-0.0818030388999408,-0.000916813226813654,0.0552970631100982
18,18,0.0532600034897839,0.0892232275722251,1.00348339621944,0.00012966198559572,-0.0047785792705339,-0.00130795680081094,-0.0843184376160723,0.0228997215121525,0.0497800655086943
19,19,0.0532633290644473,0.0891829627828073,1.00346593529094,-0.000263819135959801,-0.00475464466959958,-0.0011362522187852,-0.073924869844024,0.0323660584134558,0.0287323029824523
20,20,0.0532594798748583,0.0891439572090236,1.00344919384772,-0.000656639031861745,-0.00469986982897553,-0.000996371585612607,-0.0281365546044605,0.0714700398916317,0.0292894802416751
21,21,0.0532474524872763,0.0891060499714989,1.00343335858528,-0.0012744994805603,-0.00453560656755859,-0.000887263632701829,-0.00836509960562999,0.0495893190944134,0.0459241837797932
22,22,0.0532285712186604,0.0890690686798773,1.00341843130621,-0.00176078608192695,-0.0043128584656085,-0.000789693541763124,-0.0184717638004787,0.0682685131791152,0.0286172575197502
23,23,0.0532043413445713,0.0890332550204664,1.00340413133999,-0.00200607678080109,-0.0039956129910676,-0.00073356110571996,-0.0426515532376436,0.0494446845607415,0.0105209236769349
24,24,0.0531762682235564,0.0889988506396514,1.0033901781579,-0.00257589505492334,-0.00357795437122432,-0.000685618718079933,-0.0256798349413892,0.0449937108132076,0.041552959286107
25,25,0.053145857280071,0.0889660970958145,1.00337629136681,-0.00266787400041599,-0.00316697316537305,-0.000687301360923081,-0.078450902985322,0.0416746270837173,0.0320562461538294
26,26,0.053112874855937,0.0889344319553704,1.00336239648172,-0.00275701789796578,-0.00295759677345803,-0.000744480468137344,-0.0777637913609418,0.0495411750046494,0.0283440212576732
27,27,0.0530763175013825,0.0889036940297886,1.00334868061738,-0.00265871927219727,-0.00289000661176551,-0.000869976198410744,-0.0912286193436069,0.0572488923048755,0.00174931904098611
28,28,0.0530365360248498,0.0888747266787842,1.00333525574646,-0.00272294014393894,-0.00270141425326083,-0.00101566309067862,-0.0196278170098074,0.0444511137457443,0.0456629212458012
29,29,0.0529938812740056,0.0888483733573953,1.00332223363118,-0.00285979270139017,-0.002548860731497,-0.00112554816847919,0.0178453236282988,0.0591785665758409,0.00198304742656838
30,30,0.0529487041392602,0.0888254777122276,1.00330972581826,-0.00293933947125885,-0.00214851186698547,-0.00117237378277397,0.0147046608697436,0.0397368195432261,0.0219943632940186
31,31,0.0528983976754695,0.0888049279926963,1.00329789113184,-0.00314303148641461,-0.00193681555671797,-0.0011100824380944,-0.0268096041805006,0.0515857489851186,0.0266815628917132
32,32,0.0528427281687884,0.088786162082255,1.00328665495727,-0.00370324738492144,-0.00125351250254306,-0.000966100521606973,0.00400646282693591,0.0596432763694795,0.0449694362255867
33,33,0.0527856062790407,0.0887708481028906,1.00327577864714,-0.00421761876196676,-0.000857621176044672,-0.000803038935278417,0.00369656094785944,0.08177103753341,0.047203810796894
34,34,0.0527309425297843,0.0887606538154023,1.00326502369107,-0.00436759769472823,-0.000381219592926911,-0.000668031360673752,-0.027574232443998,0.0831957031069512,0.028820094717531
35,35,0.0526826472764325,0.0887572465537137,1.00325415171771,-0.00440645843987525,-5.86961466869759e-05,-0.000610615017595937,-0.0179296327447344,0.091232937300294,0.0193688666197683
36,36,0.0526415722004417,0.0887628362175441,1.00324322269429,-0.00398589225792808,0.000501400402028642,-0.000674431694323249,-0.0611434821929911,0.103983933412284,0.0237721092044808
37,37,0.05260510987541,0.088776310635267,1.003232395824,-0.00355045357597964,0.00131085251475427,-0.000836160653837835,-0.0602950844144529,0.0676103286372967,0.0712209867560782
38,38,0.0525719819569706,0.0887943538885679,1.00322158161586,-0.00288765549959923,0.00230542190209306,-0.00100334741446226,-0.0833704123865491,0.0610596663137251,0.00373760164573333
39,39,0.0525409103346609,0.0888136503108222,1.0032106904206,-0.00261576914268411,0.0028012262950718,-0.00115250195862703,-0.0318260698816371,0.066742343558774,0.043619933797061
40,40,0.0525106171880118,0.0888308845394634,1.00319963242798,-0.00208330024581601,0.00316551569843539,-0.0011976795434644,-0.0655988224385069,0.070946856842086,-0.0334904413557836
41,41,0.0524821551956508,0.0888469808789863,1.00318813480069,-0.00202327148220577,0.00345990979403263,-0.00111571657838771,-0.0376477259437775,0.0722887143525441,0.0207704961838559
42,42,0.0524563761276249,0.0888641497602759,1.00317625753747,-0.00199813361611096,0.00344763599627201,-0.000958472530618979,-0.06007376537224,0.0371858163281044,0.0244074040431839
43,43,0.0524317011408719,0.0888810052321484,1.00316440992082,-0.00218201007850618,0.00323305728306822,-0.000760432996980572,0.0151377064190918,0.0619287356818676,0.0520949055587272
44,44,0.0524065515215456,0.0888961612039194,1.00315300108541,-0.00243723562027896,0.00279516384240122,-0.000578259215047129,0.0423962531740679,0.0574960167956792,0.0487895078979127
45,45,0.0523793486747837,0.0889082314262822,1.0031424400162,-0.00238419049311847,0.00274848678696235,-0.000453923688536031,0.0291329237736457,0.0223329780549825,0.0329795181274995
46,46,0.0523495614168346,0.0889157572602754,1.0031326320919,-0.00231833204190157,0.00219399832878215,-0.000398279116352865,0.0150836083414507,0.0642850959673255,0.0288472753842046
47,47,0.0523182424672735,0.0889196629578809,1.00312330458498,-0.00216732763782091,0.00218120567576425,-0.000366094377459187,-0.010948728595894,0.0175973264157022,0.0326539128421832
48,48,0.0522861890031615,0.0889221364483518,1.00311459919987,-0.00169358305694802,0.00177093553001539,-0.000367674213544903,-0.0516592174968899,0.0420513119501978,0.0141068323457009
49,49,0.0522541979810461,0.0889253655512569,1.00310665757467,-0.0016926968349235,0.00148020250120425,-0.000369091017017446,-0.0652455972434989,0.0468866684308938,0.0335135243778919
50,50,0.0522230661627113,0.0889315379727962,1.00309962128859,-0.00142946023547855,0.00141137671036231,-0.000373888531496288,-0.0870783553192459,0.0576696837679525,0.0400954951549405
51,51,0.0521943399660901,0.0889402110810142,1.00309390257015,-0.00164719221478584,0.00127626969909312,-0.000380026113780269,-0.0482530887197741,0.0612011375476415,0.038274642222659
52,52,0.0521674880372497,0.0889499262621535,1.00308940693234,-0.00182887229363439,0.00127402147624153,-0.00039344480405878,-0.0174882711022113,0.0660596203787687,0.0332705966821139
53,53,0.0521401904291175,0.0889613472609408,1.00308551589688,-0.0021854407253306,0.00175349834514585,-0.000411790447781915,0.0253102989873373,0.021031866598171,0.00363572919449618
54,54,0.0521101272404502,0.0889751379087333,1.00308161102568,-0.00254646483727928,0.00208842854159192,-0.000434639005248976,0.0690763077838374,0.0327200162608889,-0.000474711322717472
55,55,0.0520749785991404,0.088991962132216,1.00307707389616,-0.00310825900518166,0.00244000379614699,-0.000448692558731797,0.0542068654196509,0.0542497167393134,0.00637244789359195
56,56,0.0520330862172325,0.0890131034387004,1.00307171727582,-0.0028593104606056,0.00260341788304405,-0.000483544475660861,-0.0156022533101252,0.0677331979073227,0.00062220293611394
57,57,0.0519859967834507,0.089038119498707,1.00306595356112,-0.00314149017964981,0.00256562212612885,-0.000522942961987741,0.0137818542452154,0.0760610222153093,0.0138533134063095
58,58,0.0519361978229007,0.0890650855043886,1.00306006366955,-0.00304025160034167,0.00289161894113025,-0.000554006734809259,-0.0535643262087873,0.0459378423585963,0.0203234668557901
59,59,0.0518861767044437,0.0890920764725477,1.00305432838068,-0.00298906592085492,0.00304661584159468,-0.000551937685714134,-0.0398912556051764,0.0430215050266324,0.00805853642243054
60,60,0.0518384206146748,0.0891171671742368,1.00304902836543,-0.00301931446521494,0.00334740674608669,-0.000510772002657392,-0.0279547895221196,0.0243562996213165,0.0419846083944741
61,61,0.0517911558516875,0.0891361942267671,1.00304423620551,-0.00311763074611671,0.0035630992251342,-0.000408602500446947,-0.0353957325824247,0.0655035642368029,0.0292370454506402
62,62,0.051742723897266,0.089150440579372,1.0030397646692,-0.00362131132450484,0.00365997231970981,-0.00026533952966922,0.043270478389798,0.0367148804597826,0.050515444409
63,63,0.0516957846289174,0.0891661506145473,1.00303550471244,-0.0040868034209277,0.00383241529347789,-9.55574189677356e-05,0.0635961853577066,0.0508778589329521,0.0290472465149775
64,64,0.0516529979955544,0.0891895693071185,1.00303134728515,-0.00425440981419602,0.00409527333295891,7.59550734709175e-05,0.0450034615889418,0.0640228897745265,0.0206713175848793
65,65,0.0516170241192712,0.0892269422345524,1.00302718334533,-0.00419986871376535,0.00436730791980721,0.000246283732264917,0.0838453488345408,0.0634303232109917,0.0117875833315209
66,66,0.0515864215408535,0.0892819601983701,1.00302301778281,-0.00355215599785303,0.00515246381003549,0.000418755075781922,0.00473893146716552,0.0859532209147575,0.00401578671063715
67,67,0.051559417116103,0.0893504601737716,1.0030189234662,-0.00273476199206088,0.00625977998401199,0.00060075716096225,0.016591688295868,0.112432514433631,0.0411042919707349
68,68,0.0515381735511085,0.0894269071143884,1.00301489344384,-0.00187226795240457,0.00742660020835797,0.000777678871839977,-0.0286731413882414,0.0920438904080105,0.0641723208028919
69,69,0.0515248531845003,0.0895057656578558,1.0030109207515,-0.00117436324317358,0.00842997920326415,0.000932324526599287,-0.0251423852197937,0.111804584780544,0.0623620247463115
70,70,0.0515216179151823,0.0895815001799382,1.00300699835143,-0.000166316573182581,0.00918823196442553,0.0010360689393266,-0.0834709292126364,0.101887588087265,0.0409275081472042
71,71,0.0515295734335261,0.0896537953941786,1.00300314375334,-0.000128652658192365,0.00931884694133601,0.00108508075192825,-0.0228916444561931,0.0849708150292183,0.0526719642318395
72,72,0.0515472779520199,0.0897263415943057,1.00299936198777,-7.3891608701336e-05,0.00933968631760376,0.00108062097567048,-0.0179353875378669,0.0665033737446658,0.0367411628031576
73,73,0.0515730722271099,0.0897996113734302,1.00299562707052,-0.000377121232871303,0.00914230612529688,0.00105727281590589,0.0024085692027357,0.0306763247339764,0.0168455158589478
74,74,0.0516052975079478,0.0898740772625148,1.00299191281387,-0.000513572817823352,0.00904932411221473,0.00101702891811102,0.00697786297404699,0.0421079220691189,0.00925174686848164
75,75,0.0516422955056196,0.0899502116987383,1.00298819285407,-0.000345735914161586,0.00893139580283019,0.000991614865601326,-0.00963334502859012,0.0440504967397118,0.0262083386525335
76,76,0.0516848153213702,0.090027466681093,1.002984263823,0.00012470064733028,0.00887666463640388,0.000974821527716017,-0.00748307028503113,0.0250172285290802,0.0357486089078722
77,77,0.0517339631131181,0.0901055270605746,1.00298014307899,0.00126232399341642,0.0089521616189445,0.000959197330443364,-0.0613576757820481,0.0493420074821128,0.00845036001476191
78,78,0.0517886165161027,0.0901852143005602,1.00297613528238,0.00241988919782639,0.00877753052839745,0.000939588741476214,-0.044850783468712,0.0269721389303476,0.0331299904069709
79,79,0.0518476531966948,0.0902673496834559,1.00297254511498,0.00351509638743188,0.00842241447362728,0.000924397459647151,-0.0831096152547589,0.0710966046053951,0.026399007905703
80,80,0.0519099507984151,0.0903527543961934,1.00296967727778,0.00438037990230368,0.00860046393422952,0.000926843421901726,-0.0618858467056908,0.0555720021582415,0.0382003698381037
81,81,0.0519762774161707,0.0904425318892135,1.00296772487439,0.00495541659604209,0.00857020031471621,0.000959099544439902,-0.0109095937176805,0.0613034958440909,0.0656744039775802
82,82,0.0520473816764504,0.0905361340781545,1.00296648479197,0.00559583462866379,0.00884277655160126,0.00102057592876857,-0.0160803763616089,0.0503871110764367,0.0562748141214332
83,83,0.0521221118226848,0.0906319051774802,1.00296566732654,0.00635537637366429,0.0092214043310328,0.00109423772037336,0.0110618995346222,0.00544741282809554,0.0169654998053105
84,84,0.0521993160459205,0.0907281897907919,1.00296498256531,0.00701519741115293,0.00949238180870686,0.00114189999845571,0.00695199467048649,-0.0313966506197755,0.0129645566211826
85,85,0.0522778425402564,0.0908233328373514,1.00296414038579,0.00739034629127234,0.00940246698261704,0.00115688758196325,-0.0158206431802886,0.00226226417532999,0.014668905203805
86,86,0.0523612178530578,0.0909167826698781,1.0029632736779,0.0075727171479996,0.00952124545497177,0.00111853541415432,-0.0153232208618794,-0.0272014035557618,0.0432432645517385
87,87,0.0524502096274342,0.0910096432678041,1.00296257524507,0.00768588005132359,0.00933475451930816,0.00104455936986798,-0.0257974354113544,-0.0120292145232639,0.0260509509058449
88,88,0.0525395278415608,0.0911027431162535,1.00296184499945,0.00757877933912092,0.00941443052525023,0.000949175886296455,-0.0277197887081025,-0.0363101421457383,-0.00928392901822469
89,89,0.0526238826921374,0.0911969105776294,1.00296088324905,0.0074257159143161,0.00898750025861718,0.00084285820473527,-0.0307822981935488,0.00316847625783482,0.0124247152278057
90,90,0.0526979845996763,0.0912929738309764,1.00295949068671,0.00701108041309094,0.00883439086577522,0.000754242473004699,-0.0302690997377983,0.0280936887760061,-0.00482701841563322
91,91,0.0527592940771266,0.091391348242201,1.00295768372503,0.00664753672795626,0.00888305528403705,0.000655367070973847,-0.0253306461653699,-0.0113157689539972,0.0105331583120525
92,92,0.0528113377538034,0.0914914816997383,1.00295559571164,0.005920187353937,0.00916401079386779,0.000549402392469267,0.0112762786240783,-0.000130475631290177,-0.00136111820469518
93,93,0.0528579253525391,0.0915927509338939,1.00295320286258,0.00506052326127733,0.00970283426391562,0.000452914637267708,0.0125830342584921,-0.00136305193990379,-0.0045198042650052
94,94,0.0529028665896214,0.0916945326803045,1.00295048123283,0.004072957424528,0.0101189283858209,0.000397454577101998,0.00539316041662335,-0.0178983144565031,-0.00370287128048213
95,95,0.0529499712329329,0.0917962037413536,1.00294740673642,0.00358803508269186,0.0100935626182186,0.000403076066519099,-0.0239047182526417,-0.00476411052305982,0.0374856690613951
96,96,0.0530020101475715,0.0918992649370092,1.00294378370698,0.00350677019835729,0.0101698779119845,0.00051721125300188,-0.0569402366348011,-0.0314098190951291,0.010687657823426
97,97,0.053056444049631,0.0920041313545158,1.00293962834722,0.00348805080657906,0.00989465059870783,0.000726329330187068,-0.0538561378852714,-0.00432204842528827,0.0473873439060374
98,98,0.0531091172546064,0.0921085515037599,1.00293523418153,0.00368329060258925,0.00944095929787748,0.000958825699608731,-0.0668636190361957,-0.0256120704324057,0.037287218119799
99,99,0.0531558735756914,0.0922102742855016,1.00293089457433,0.00375358775952771,0.0093228154187798,0.00114542045643908,-0.0202631616241152,-0.0495965149549395,0.0215334769573367
100,100,0.0531925562995956,0.0923070489671351,1.00292690274972,0.00349507285852883,0.00924612826263728,0.00121490253679938,-0.0127126367141703,-0.0482501964328427,0.0332834311736766
101,101,0.0532173008798058,0.0923989865042376,1.00292318968256,0.00279853986330956,0.00922535733162865,0.00111273169664444,-0.0169233390788058,-0.0158184705078595,0.0113870365981916
102,102,0.0532328779498335,0.0924875878695821,1.00291955985498,0.00198186618658591,0.00953838784264345,0.000892967789333059,-0.0462679251320231,-0.030434373863955,-0.0277186181184841
103,103,0.0532420833151559,0.0925726874398507,1.00291611671416,0.00106265136991257,0.00967453448921684,0.000622595956920416,-0.0446649697737963,0.0244853179046173,0.00439721913603935
104,104,0.0532477128954162,0.0926541194819505,1.00291296368583,9.64702614689068e-05,0.00990245698825643,0.000424172198686279,-0.0550065391697804,0.0352551959238565,0.0151474869481488
105,105,0.0532525627057962,0.0927317181683645,1.00291020414857,-0.000392958058902031,0.00953308234566445,0.000368914045829815,-0.0867156782194172,0.0539118307955015,-0.0126836651228265
106,106,0.0532541198141173,0.0928043799643484,1.00290773756785,-0.000759167446612107,0.0091713008919241,0.000500530900439758,-0.0514908992546345,0.0226159432453993,0.0571174316888532
107,107,0.0532505200471437,0.0928722154391386,1.00290549513376,-0.000883544128225356,0.00876407396128214,0.000751269307264185,-0.0448679219516582,0.00289059648244059,0.0370163945679719
108,108,0.053245532618023,0.0929368798601467,1.00290362770692,-0.000904256755823969,0.00817706751170601,0.00106723885903373,-0.0118276970106197,0.00145568872668223,0.0488657216261706
109,109,0.053242926748553,0.0930000285200172,1.00290228605687,-0.000851190459068232,0.00765192031323204,0.00138950315113061,-0.0193116888254356,-0.0180659677108978,0.0098103115755549
110,110,0.0532464716689611,0.0930633167635021,1.00290162083232,-0.000779941681550259,0.00721836753174017,0.00164508943682735,-0.0351836214480823,-0.0143840571233494,0.0436398595644436
111,111,0.0532581844827383,0.0931275947994309,1.00290196187081,-0.000529122622814012,0.00729626542962624,0.00185471482928164,-0.0608841264106495,-0.00791781713548741,0.0489832561207448
112,112,0.0532755522101501,0.0931917592753791,1.00290320854641,-0.000348409551466773,0.00684667008478296,0.00206163541578507,-0.0420950913869611,0.0241769891516773,0.0423631166116358
113,113,0.0532955489708172,0.0932545351427349,1.00290486563313,-1.18633904110453e-05,0.00691850088246005,0.0022349519447895,-0.0834618081107489,-0.0220308012837826,0.015030369810694
114,114,0.0533151489083794,0.093314647180412,1.00290643790764,0.000305831933235392,0.00689791595638943,0.00234786539300506,-0.0940646257854769,0.0110353900292357,0.0337801539307616
115,115,0.0533313261954025,0.0933708199851158,1.00290743023058,0.000449643438361521,0.00681531568248297,0.00235518118509519,-0.0636442190061619,-0.00534860865754327,0.0492041947442793
116,116,0.0533466501267916,0.093419075244151,1.0029081746051,0.000491112774267515,0.00674726919117704,0.00222498294897828,-0.0127262167104648,-0.00652854920021669,0.0219228610266875
117,117,0.0533631377518099,0.0934602629902109,1.00290900110379,0.000552526193664318,0.00596925011292072,0.0019754169704874,-0.00978619839196894,-0.0177239265973538,-0.000941854334078581
118,118,0.0533769350322345,0.0935003502977502,1.00290941179939,0.000595794453603585,0.00566077289093556,0.00166173811128582,0.0107709256216597,-0.0497419892663827,-0.0294768369525912
119,119,0.0533841880994585,0.0935453043736827,1.00290890868162,0.000525976571193119,0.00528885148494579,0.00139223926915052,-0.0104961347222076,0.00799393539699464,-0.00627207188508555
120,120,0.0533810431107105,0.0936010924675512,1.00290699370588,0.000252959634997997,0.00533679747742412,0.00121884387466431,-0.00629804820819694,0.00474564558519981,-0.00675471944683187
121,121,0.053363630012854,0.0936682179290874,1.00290369564884,-6.17654441468826e-05,0.00612118193377084,0.00118223963479069,-0.0662062120717667,-0.0341258805448756,-0.0165383279979291
122,122,0.0533345178039597,0.0937427023135469,1.00289934675934,-0.00103933191037685,0.00741762640743553,0.0012311916617448,-0.080639434092396,-0.0384803021132894,-0.000406370060672263
123,123,0.0532995109475051,0.0938237900847586,1.00289390458853,-0.00176441506782548,0.00879289850593802,0.00132684766805122,-0.109849191476551,0.045251250253455,0.0231111170195695
124,124,0.0532644136312484,0.093910725656012,1.00288732733601,-0.00236834909246495,0.0100201715135944,0.00145638210658494,-0.0750561314659286,0.0554804308482791,0.0490531609180415
125,125,0.0532350292055262,0.0940027536741355,1.0028795743316,-0.00278040592671188,0.0111034071534332,0.00158215678631043,-0.0658773471711668,0.0788866880409083,0.0550538424367784
126,126,0.05321001700984,0.0940986451219847,1.00287013516001,-0.00263249013911042,0.0113894879097743,0.00179439862882584,0.0067291893449346,0.135965592957142,0.0611294131637066
127,127,0.0531855025909047,0.0941989042152289,1.00285904276222,-0.00198974466291401,0.0119867600035527,0.00210417023228546,-0.017360476206697,0.109211398572572,0.0708617420221599
128,128,0.0531634888065397,0.0943053757086202,1.00284707115553,-0.000933678352098123,0.0123287310889503,0.00237832154039629,-0.0256079783382806,0.14561945875835,0.0903033159966751
129,129,0.0531459814873147,0.0944199037324529,1.00283499130436,0.000243878221196922,0.0128638058400268,0.00251898578321734,-0.0540421229585886,0.165847197309299,0.0247666255319531
130,130,0.053134990034387,0.0945443313413328,1.00282357055062,0.000840275165450327,0.0138215107338371,0.00242137614572875,-0.0654248146215419,0.166247994296461,-0.00698967596039252
131,131,0.0531363645467388,0.0946773622786751,1.00281251745934,0.000874464585625115,0.0155186898075141,0.00191621244830828,-0.079983770752619,0.131185536562879,-0.0342315064633811
132,132,0.0531487650612899,0.0948177668046434,1.00280132189802,0.00072751366298548,0.0178991985933061,0.001078084034612,-0.0864925814541693,0.117560794110753,-0.0609260074215463
133,133,0.053163417546504,0.0949674858435545,1.00279041853265,0.000331846761754141,0.0207261921370821,0.000133044135860073,-0.0694868664294703,0.109556968823738,-0.0520533117637773
134,134,0.0531715470670538,0.0951284599533112,1.00278023958962,-0.000177459662112409,0.0235844558205503,-0.000706459566824238,-0.0119734550442016,0.101374860213631,-0.0316458580600832
135,135,0.0531643789104123,0.0953026305356448,1.00277121510021,-0.000481556226712882,0.025192681708487,-0.00120213144270804,0.0204100553556028,0.115012018336291,-0.0256187398962786
136,136,0.0531391200631208,0.0954967248828107,1.00276296531695,-0.00117611362646225,0.0257001957555002,-0.00126177181207677,0.0743958795264517,0.152351692335527,-0.00975035207914412
137,137,0.0531016228903256,0.0957094506806541,1.00275519905148,-0.00227892647466334,0.0257380273210677,-0.00102540123523735,0.0861190542448692,0.115530911744917,0.0414422984650557
138,138,0.0530560811308946,0.0959307211446626,1.0027484787429,-0.00324822576059681,0.0254486444551439,-0.000630578170507579,0.0232200340333795,0.102795518992251,0.0194683888009394
139,139,0.0530066854906423,0.0961504475973307,1.00274336833304,-0.00408240542614897,0.0249069588778912,-0.00024483900860552,-0.0218287756920096,0.125729565819903,0.0274007682224867
140,140,0.0529576225437552,0.0963585383448602,1.0027404332333,-0.00468973983296947,0.0239181475449487,-1.30853749137161e-05,-0.0413449777677204,0.215613235017131,0.0355896358365155
141,141,0.052911244847013,0.096549774073517,1.00274069130066,-0.00502197557612868,0.0228392570798825,4.7333521161272e-05,-0.0356089570554395,0.187829397788573,0.0451379855097763
142,142,0.0528647587388144,0.0967308825771305,1.00274376652271,-0.00484211061802924,0.0221265944087385,5.17707263881035e-05,-0.0870606914810549,0.183265482593845,0.0366987533230746
143,143,0.0528146298996339,0.0969096897724441,1.00274813425083,-0.00454759670651081,0.0213407172468109,1.46543941153664e-05,-0.0952682974400655,0.140514275762734,0.0106891351144564
144,144,0.0527573263198226,0.0970940213968188,1.00275226966401,-0.00467748812463425,0.0204142217529478,-5.42819146226405e-05,-0.0175317133531755,0.117378378211835,-0.0233720220566493
145,145,0.0526893185266346,0.097291703509675,1.00275464775939,-0.00502158268785594,0.019839649898127,-0.000154104859752955,-0.0279268522597189,0.0572336172758638,-0.0714194329130381
146,146,0.0526048496555706,0.0975087088783507,1.00275464011758,-0.00576888426424962,0.0193113748035331,-0.000393553003128177,-0.0217919149676609,0.024596140883843,-0.107940400238841
147,147,0.05250627557453,0.0977398209105991,1.00275326547402,-0.00686998839849634,0.0191608973227821,-0.000790680320215816,0.00934796212043247,-0.0374903647094356,-0.0565548044207529
148,148,0.0524022390442126,0.09797608142378,1.00275146879138,-0.00816545051555662,0.0190736213422257,-0.00116691511333118,0.00475932069718152,-0.0478355586447975,-0.0248553573684353
149,149,0.0523013837874439,0.0982085313195327,1.00275019425578,-0.0090429251791067,0.0190954500235187,-0.00134968379464419,-0.00386052307702117,-0.0846442648853474,-0.0190518793041452
150,150,0.0522123537360801,0.0984282105682062,1.00275038532783,-0.00937342738276568,0.0187662914145143,-0.00116975392003818,-0.0283717083913332,-0.0308093755512062,0.0309791678264544
151,151,0.0521202414194655,0.0986353321024312,1.00275127481364,-0.00877579855122831,0.0181975524935294,-0.000482867113196561,-0.121413014870655,-0.0537192237865023,0.0429596559199604
152,152,0.0520192885703477,0.0988358735166047,1.00275223564129,-0.00814944211209928,0.0175115310844055,0.000569508800971654,-0.060772705952384,-0.0166109326071975,0.0952155823350563
153,153,0.0519318612707766,0.0990295160845904,1.0027544210841,-0.00679635925555019,0.016761025472839,0.00179969846446044,-0.0569809467821209,-0.0320337238152719,0.0998299584316051
154,154,0.0518803246391756,0.099215933216735,1.00275898372179,-0.00483769695436769,0.0159050853820935,0.00301039892456865,-0.10156214225684,0.0277233912051519,0.135467495738153
155,155,0.0518870431323143,0.099394789411515,1.00276707473986,-0.0024017960702638,0.0154699198314603,0.0039892838196934,-0.0435869153597868,-0.0112954336074611,0.171930869657905
156,156,0.0519630295947272,0.0995561061613674,1.00278014152384,0.00130041624688001,0.01484961611855,0.00483550015850751,-0.0898804218163852,0.0391689290054812,0.0841207783697672
157,157,0.0520933719462304,0.0997000838248211,1.00279741743246,0.0056424566725531,0.0144072589023487,0.00566450958701804,-0.0253561900631411,0.0229413816563345,0.109321731053355
158,158,0.0522615473866633,0.0998416562596346,1.00281672866361,0.0104390439290273,0.014143729457829,0.00634576711933277,0.0165157144999786,0.0462283321775242,0.098354799223835
159,159,0.0524510349410854,0.0999957705950004,1.00283589949097,0.0149664581642956,0.0142912142734165,0.00675392425145974,0.0489686522331008,0.0635442607998474,0.134607380776647
160,160,0.0526453158790754,0.100177388527663,1.00285275403316,0.0182884128884782,0.0148603980296577,0.00677034815065261,0.140761671844703,0.0329571641968287,0.0951224181135553
161,161,0.0528602416926022,0.100400369677537,1.0028689212412,0.0206309983483718,0.0157042203885198,0.0062746187251866,0.186994582939184,-0.0404365622332537,0.0329115239669966
162,162,0.0531068263640628,0.10065474515507,1.00288584992449,0.0223453904071729,0.0170847514075176,0.0053524849256816,0.213493150483787,-0.0636810828462764,-0.0334938740034519
163,163,0.0533612967608346,0.100919751342928,1.00290109701163,0.023675446971125,0.0180148951111666,0.00414958300171858,0.21859736308036,-0.0402154213412211,-0.0573415033317359
164,164,0.0535998798131859,0.101174631825774,1.00291222195928,0.0244915694719303,0.0187805911682664,0.00285038939579848,0.187958220898203,-0.102696947610635,-0.105989470730662
165,165,0.0537988022625872,0.101398633847274,1.00291678530475,0.0247574696781603,0.0188609929357693,0.00160406491863802,0.161004516720559,-0.120901102073736,-0.140517059736018
166,166,0.053954107042273,0.101583253909665,1.0029125680313,0.0239819917972365,0.0186483724399124,0.000265616719719747,0.124022021434995,-0.139351358111345,-0.170359735810899
167,167,0.0540816454492905,0.101742343260242,1.00290120913091,0.0222248082468424,0.0172127568279732,-0.0012780649413925,0.134592929383785,-0.0266605384990965,-0.161456157204372
168,168,0.0541873543099732,0.101888675381453,1.00288604731344,0.0202232645999567,0.0155103569138086,-0.0027714269018009,0.0910140779471273,-0.0716857938627145,-0.14980121416605
169,169,0.0542771678470477,0.102035021751869,1.00287040983035,0.0188044783425192,0.0139126079835345,-0.00398501138351387,0.0123293053056907,-0.106224309393202,-0.0994935033387598
170,170,0.0543570180522187,0.102194154885108,1.00285761398369,0.0174604692059434,0.0131029889300436,-0.00463594233220065,-0.00300329410470729,-0.125129599708396,-0.0370095012441229
171,171,0.0544254489676999,0.102372863119629,1.00284672403513,0.0160717140865193,0.0123089854227277,-0.00450027259128802,0.0210769190206739,-0.104977849169824,0.012878982170615
172,172,0.0544785022787369,0.102562631527389,1.00283551799842,0.0142860752067903,0.0122703606243993,-0.00375040076960205,0.0815459412946856,-0.0771086430693193,0.0474914326440929
173,173,0.054518355267654,0.102753276897266,1.00282537861591,0.0122103570543125,0.0120065993647547,-0.00271632238518501,0.0863056128410322,-0.0278159591134894,0.0660239702072359
174,174,0.0545471851645426,0.102934613265775,1.0028176886618,0.00996614567789412,0.0117297034111319,-0.00174135650232308,0.0270397827507307,-0.00644221535143342,0.0532635118324916
175,175,0.0545671689354649,0.103096451618799,1.00281383139644,0.00810123988118499,0.0110502827450793,-0.00116239512518847,-0.0251198433551608,0.0059816123969793,0.031608407147431
176,176,0.0545790383981438,0.103237989494743,1.00281558203574,0.00637563260984133,0.0104333555111331,-0.00107160469233284,-0.0803207408887375,-0.0411090024193791,-0.0486604500591718
177,177,0.0545813379749131,0.103366011405921,1.00282202075113,0.0044256841212961,0.0096780584556381,-0.00124713462014297,-0.0349474186765018,-0.0698266726818281,-0.0481549758784436
178,178,0.0545729654369497,0.103481709999618,1.00283048846719,0.0025057600167079,0.0086583957113677,-0.00154567031438398,-0.0549904402551756,-0.0897302692554981,-0.0737034702564916
179,179,0.0545528215806615,0.103586282190082,1.00283832260026,0.000570179742880014,0.00754669598514877,-0.00184045901650627,0.0130973273860627,-0.0838218656170865,-0.0389099197082647
180,180,0.054519810041869,0.103680929277134,1.00284285518124,-0.00107497821434732,0.0065302611844229,-0.00201435401208984,0.0795874634248983,-0.14407681094404,-0.0140935284045982
181,181,0.0544655739944533,0.103762523990332,1.00284395779424,-0.00241475024404884,0.00536256067933127,-0.00206360561892228,0.125071346831148,-0.133620952336855,-0.0329470426588652
182,182,0.0543908475810433,0.103830267085995,1.00284340830602,-0.00286470342926809,0.0042763443604411,-0.0020993095833355,0.0704743173750646,-0.144329605441245,-0.0452042392511693
183,183,0.0543081721255962,0.103888854608652,1.00284139361089,-0.00302345454179679,0.00310650648396467,-0.00206369606003647,-0.0174907700479711,-0.151424720186539,-0.0239590925627062
184,184,0.0542300881614147,0.103942982438021,1.00283810053561,-0.00294722724480285,0.0017460712878395,-0.00194429414952765,-0.0663808507299232,-0.0989326782641018,-0.0220744002608962
185,185,0.0541691356081873,0.103997346292711,1.00283371590476,-0.00275022701297589,0.000507574125968511,-0.00171554776354841,-0.107336088578721,-0.09013605798644,0.0379995241175537
186,186,0.0541251336994644,0.104055138356842,1.00282778571507,-0.00257575465646412,-0.000100903141070527,-0.00129831941935799,-0.141770051086083,-0.107227678683246,0.0502059218068759
187,187,0.05408972378128,0.104113229023315,1.00282018456178,-0.00214666419202257,-0.0003420833317596,-0.000719376098071249,-0.144601793102653,-0.10657708139159,0.0718474094226135
188,188,0.0540631784344907,0.104166830309307,1.00281159173638,-0.00151630739872985,-0.0003408139457217,-8.72252868566621e-05,-0.1365155655878,-0.0972633523195062,0.0817455196863388
189,189,0.0540457697470702,0.104211153350724,1.00280268607383,-0.000759932982545783,-0.000165658909818618,0.000483399115103124,-0.0675632397214728,-0.112256747962648,0.0283716391398737
190,190,0.054037769257263,0.104241408687204,1.00279414608092,-0.000125859164753986,-0.000286041574025257,0.000874209435494046,-0.0272512821620695,-0.106197608969263,0.0440478746912779
191,191,0.0540434212863295,0.104255664305072,1.00278534511708,0.000473240801589328,-0.000696362630489295,0.00107071463523593,0.00929832355787714,-0.0746162550246057,0.0510246986441646
192,192,0.0540625451192639,0.104257112237677,1.00277582941173,0.00154692983800334,-0.00133905269314209,0.00111289770187209,-0.0184299198099561,-0.0973337580835444,0.0419711611603143
193,193,0.0540887742375264,0.10424864906167,1.00276653692561,0.00275489026122548,-0.00208236775076285,0.00108885205660174,-0.0772524770740863,-0.0698420988150764,0.0381715164797726
194,194,0.0541157420584438,0.104233171343387,1.00275840593238,0.00390728955676325,-0.0027522842342766,0.00103893045353896,-0.0917946168304594,-0.0584264298817293,-0.0083623892529105
195,195,0.0541370819540403,0.104213575506895,1.00275237493296,0.00441250697635951,-0.00336117788942984,0.00102168335480502,-0.0737185641778482,-0.0134897084355289,0.00288651745098238
196,196,0.0541511107094808,0.104188463226896,1.00274899354548,0.0039426726468113,-0.00346169240881273,0.00104219201126025,-0.0155839672047127,-0.0103918945811025,0.0393532114068212
197,197,0.0541620727959335,0.104155903653227,1.00274763642726,0.00346518568507093,-0.00399568435072832,0.00106803131752248,-0.0723008848084111,0.0294577562191842,0.0232159145815423
198,198,0.054172492987846,0.104117994344403,1.00274747961936,0.00260950435403027,-0.00369375359213723,0.00108917936683844,-0.0457790644321975,-0.0240297950289737,0.00555310435271586
199,199,0.0541848960294169,0.104076832663034,1.00274769884224,0.00178941707244401,-0.00377451794945295,0.00110076425369358,-0.0166241998535772,0.00286996396703085,0.0114500215710827
200,200,0.0542018065967817,0.104034515694982,1.00274746945142,0.00147668923979267,-0.00366020423291478,0.00109416277839919,-0.0265363677274203,0.00179758551397391,-0.000575535715930037
201,201,0.0542198820058208,0.103990949165699,1.00274633829989,0.00209930979306693,-0.00365614811085464,0.0010709583059432,-0.0137989330223555,-0.000846539258983129,-0.0427943423145723
202,202,0.0542374390234363,0.103944734758946,1.00274485515652,0.00303008511941033,-0.00359400761561513,0.0010290539347583,0.0204616354182117,0.00724988376036193,-0.0251733255871809
203,203,0.0542594912283973,0.103896013393472,1.00274369943039,0.00408609043755878,-0.00352694603585444,0.000971293671170506,0.0385061655066924,-0.0137729109673094,0.00643135178745804
204,204,0.0542910520572555,0.103844926142669,1.00274355042763,0.00519311039176155,-0.00357324600221859,0.000892098209254235,0.0552532291711395,0.0108170813139398,0.0390064450476901
205,205,0.0543371349299089,0.103791614263323,1.0027450873633,0.00630473873241919,-0.00364742891879404,0.000798616154382948,0.0363600897992968,-0.0183886290051911,0.0469810898992983
206,206,0.054404698041213,0.103735366866507,1.00274887060062,0.00773444692506199,-0.00393275665226869,0.000702402368822647,0.0160691526855954,-0.0384585495316919,0.0365764635921853
207,207,0.0544903989059393,0.103676089994269,1.00275444709996,0.00928586514578982,-0.00425108877989484,0.000587526854190333,0.0748128863366088,-0.0252575811474636,0.00512352422758383
208,208,0.0545838000355315,0.103614850306602,1.00276097637207,0.0105054137849635,-0.00461020894865476,0.000462776075597349,0.0816571981072287,-0.0105878353878261,0.0117979179373033
209,209,0.0546744638820289,0.103552714331049,1.00276761858846,0.0114978477554009,-0.00505203536977946,0.000306432203089357,0.0800011589756481,0.0133363094059904,-0.0269679862205647
210,210,0.0547519527574561,0.103490748423753,1.0027735343469,0.0120607162392007,-0.00553959895598705,0.00011134540679734,0.108866400406487,0.0175976920987581,-0.038971937962537
211,211,0.0548132191624735,0.103429762283795,1.00277836902914,0.0117890651257687,-0.00574170450974689,-0.000196376161690747,0.102890903687099,0.0295700433006061,-0.0496469380147267
212,212,0.0548652216807115,0.103369044781676,1.00278268317368,0.0113551030883841,-0.00601908408069924,-0.000601044220214193,0.0710372013965439,0.041454724370665,-0.0694797936120616
213,213,0.0549125314403435,0.103307380739566,1.00278700960346,0.0107448653590654,-0.00603156040222778,-0.00100645466136679,0.0548804622691594,0.0133781586989441,-0.0443577372254039
214,214,0.0549597192564255,0.10324355484883,1.00279188075972,0.0101004446895496,-0.00629575957968162,-0.00130011540111084,0.0592733824148094,0.0281450758522656,-0.022850904909088
215,215,0.055011355642425,0.103176351740974,1.00279782894956,0.00961602522010782,-0.00654192516935288,-0.00137168982409356,0.057397653690632,-0.025262869807572,-0.0032014196460031
216,216,0.0550676319711202,0.103104898996067,1.00280517395931,0.00927260954668748,-0.00705491753753251,-0.00112746621946382,0.0502452578534823,-0.0206319669767958,0.0283925028258064
217,217,0.0551255006235283,0.10303000634216,1.00281356045004,0.00928862653585883,-0.00770605215685106,-0.00064500203245416,-0.0221298596473961,-0.0180280155761167,0.0286361198144715
218,218,0.0551846736556751,0.102952981886995,1.00282250807287,0.00936129399022552,-0.00853011458407116,-6.2303535132823e-05,-0.0266222276984503,-0.0152897410704665,0.0399093173393176
219,219,0.0552448633707231,0.102875133978353,1.00283153651218,0.00941324160310823,-0.00909013882547072,0.00045889133164358,-0.0333554878067469,-0.0443745271898432,0.0617071976517013
220,220,0.0553057823020798,0.102797771175937,1.00284016544502,0.00933058742404155,-0.00951100665925614,0.000775898039403508,-0.029452728445179,-0.0393508868190968,0.0320984649740973
221,221,0.0553700290937677,0.102722341243645,1.00284872503395,0.00918154550464768,-0.00959823814775546,0.000809205261348738,-0.0112215185482147,-0.0457098143267038,0.0243806620749059
222,222,0.0554377955524759,0.10264797221773,1.00285753543399,0.00901061421312802,-0.00977334513215244,0.000684006593990326,-0.00376305806329788,-0.0414561605563788,-0.00945064532847677
223,223,0.0555051840616448,0.102572493069453,1.00286610128798,0.00878714016582965,-0.0100131084144301,0.000473870550648711,0.011718512814622,0.0023861422114206,-0.0291580644582421
224,224,0.0555682969185435,0.102493732527258,1.00287392721761,0.00875113092959606,-0.00994220959045949,0.000266431352013679,-0.00175049482388207,-0.0080583266512711,-0.0323060015019421
225,225,0.0556232363365559,0.102409519078081,1.00288051778491,0.00851447924626374,-0.010270370220045,0.000167719218684255,0.000629187890041515,-0.00186259376690098,-0.0335131563110857
226,226,0.0556659257014983,0.102318318298954,1.00288562457377,0.0083643299900323,-0.0105559427557313,0.000181279874101187,0.00726245255331035,0.000107226264881526,-0.0197934072835288
227,227,0.0556989635047579,0.102221577734613,1.00288957770623,0.00807039185441513,-0.0106100204005413,0.000256553796751577,0.00431511924944331,-0.0123248935878595,-0.00531591567058636
228,228,0.055728464636462,0.102121598815899,1.00289274956501,0.00776081440120243,-0.0107869052860611,0.000365745726499214,0.00425011484316265,-0.0280485478772184,0.0292613382728732
229,229,0.055760544059565,0.102020683126678,1.00289551269189,0.007670910230548,-0.0111128399645183,0.000504184720040602,-0.0206613869452383,-0.0310941980260888,0.00675076639225589
230,230,0.0558013168211484,0.101921132382529,1.0028982398092,0.00749377603464367,-0.0112783002040319,0.000637621632647195,-0.044696855045064,-0.0498083596526995,0.028443711146043
231,231,0.0558531025979739,0.101823881382628,1.00290072825541,0.00752777617718532,-0.0112155723541607,0.000790756726491888,-0.0161845880185928,-0.0558515075171099,0.020853880573977
232,232,0.0559118250678875,0.101727396061646,1.00290272981722,0.00771973656379548,-0.0114896179026111,0.000972664829237303,-0.0470059915273207,0.00078254594351227,0.0253278117917736
233,233,0.0559740052455624,0.101630274759648,1.00290454894635,0.00783969246386662,-0.0114053614098672,0.00115437829547984,-0.0134023195472626,0.00473971850243983,0.0112508510216297
234,234,0.0560361639490837,0.10153111562978,1.00290648998826,0.00790336202375944,-0.011480965295685,0.00130110511378319,0.00225458560448134,0.0223701852901167,0.022561774080639
235,235,0.0560948217803921,0.101428516652874,1.00290885719206,0.00780135999439189,-0.0113471919327245,0.00138891226731186,0.00556979671138213,-0.0146962943501951,0.0268417289998314
236,236,0.0561529647665728,0.101322527597718,1.00291194613783,0.00776288790047977,-0.0113922236948113,0.00140497085387443,-0.0265145574702939,-0.0149812250347985,0.00264592185045517
237,237,0.0562129125140049,0.101214083152462,1.00291555421977,0.0072116617095348,-0.0112833205888549,0.00138072864958602,-0.026824433885945,0.00105182858780197,0.0247237353436802
238,238,0.0562701857497084,0.101103108440374,1.00291923820443,0.00701204528626701,-0.0116075925703705,0.00130568252800998,-0.0251209232054804,-0.0448605471435465,-0.0022154645804004
239,239,0.0563203050853565,0.100989528387986,1.00292255461894,0.00638071337243099,-0.0116173265907983,0.00119964257563783,-0.0193308366430728,-0.0181829027187003,-0.00797508263923658
240,240,0.0563587910206898,0.100873267746023,1.00292505972656,0.00592911309300332,-0.0119480254032587,0.00106615333770124,-0.0176884995909019,-0.0240064626723124,0.000603199308586187
241,241,0.0563825612571946,0.100753050384378,1.00292673108519,0.0056318042031728,-0.0124037087682304,0.000879499225820473,-0.0124902914526307,-0.0138071249231513,-0.0195335081620327
242,242,0.0563946017041837,0.100628926034175,1.002927864112,0.00534426452762771,-0.012706241908831,0.000626075395340901,0.00214115922930278,-0.0159975962561732,-0.0213418574839808
243,243,0.0563995353340818,0.100502808448177,1.00292849175706,0.00524455135688884,-0.0129956146940495,0.000368121261016224,-0.0352761317413551,-0.027299287395848,-0.0275802296637696
244,244,0.0564019854497351,0.100376611715167,1.00292864717642,0.00499819901600074,-0.0131368589535857,0.000152463249122644,-0.0150554720536457,-0.00504611145443621,-0.0158545768447305
245,245,0.0564065756766994,0.100252250220237,1.00292836379209,0.00450207860554608,-0.0131448815715742,4.48836397284483e-05,-0.00397255497771808,-0.00442277083970325,0.0088388253814603
246,246,0.0564138961321651,0.100129270974157,1.00292773776446,0.00427696653511539,-0.0133620953872374,8.42260269007883e-05,-0.0390579639295405,0.0176312551662636,-0.00703516388301661
247,247,0.056420864820809,0.100006398329048,1.00292674721496,0.00388839434083938,-0.0133868289396414,0.000245371342163797,-0.038910800281345,-0.0033229127372774,0.0183870355707117
248,248,0.0564265974018463,0.0998843127028572,1.00292524858013,0.00345234313516638,-0.0132611591766412,0.000438250855808104,-0.00584182028482881,-0.000900991751312383,0.0246509859054654
249,249,0.0564302095190565,0.099763694258985,1.00292309803261,0.0031818698703234,-0.0131422457336863,0.000585252874885172,-0.0229770992494031,0.0167993064640693,0.0142830671880904
250,250,0.0564308167829715,0.0996452229060928,1.00292015143635,0.00281734496968766,-0.012841538052835,0.000612755472923671,0.0054234087738623,0.00879121971666314,0.0204982239880053
251,251,0.0564261757826603,0.0995297174351674,1.00291604901175,0.00267351834376008,-0.0125013386804337,0.00044540383535726,-0.0107677763766185,-0.000208328645013789,-0.0216828441398981
252,252,0.0564168764056329,0.0994167245180961,1.00291088674498,0.00252038525283222,-0.011977665122042,0.000130899677271744,0.0187840549823442,0.00519559560957936,-0.0457413783639705
253,253,0.0564062840953528,0.0993050156864357,1.00290520401507,0.00264977359577881,-0.0115707857228069,-0.000226915379208804,-0.0035249287189098,0.0548298055929933,-0.0445704717601623
254,254,0.0563977642422373,0.0991933623948867,1.0028995403295,0.00265315025865072,-0.0109936160892992,-0.000497931025539763,0.0132649091341873,0.0385987227492101,-0.0289372853398028
255,255,0.0563946822079119,0.0990805360677966,1.00289443532681,0.00256638144295663,-0.0105996742778066,-0.000601471931602477,0.0446475094608886,0.0707720592658888,0.027752370795572
256,256,0.0563955956831279,0.0989636093428914,1.00288945153843,0.00306509335857399,-0.0105247851771395,-0.000437625452217015,-0.014308085302073,0.0690058330080151,0.0201587351523287
257,257,0.0563982612393771,0.0988434011551104,1.00288422980654,0.00336803318122234,-0.010600178642141,-7.71772471850632e-05,-0.0272207113216282,0.0719649041274572,0.0416439395365546
258,258,0.0564048424980958,0.0987243025640203,1.00287942691183,0.00382626849471301,-0.0105572767082713,0.000344843304869789,-0.0252240540236184,0.0557191047899768,0.0801043182169431
259,259,0.0564175029607483,0.0986107047611572,1.00287569899894,0.00459196046636671,-0.0106498765014835,0.000736926855094577,-0.0885197690708294,0.0156967650177173,0.045345041083719
260,260,0.056438406015894,0.0985069990290607,1.00287370161635,0.00535746160706517,-0.0105155804192401,0.000976477655099615,-0.0379379098602059,0.0206426800837497,0.0295830947172871
261,261,0.0564680329473255,0.0984171677289056,1.00287413811506,0.00542638979219655,-0.0102828386727906,0.00103582406374211,0.049337211635506,0.0154696896113579,0.0324984110304936
262,262,0.0565049414580916,0.098338283676349,1.0028765707425,0.00596983574104381,-0.00969461000250278,0.000973706152135485,0.0443665862077381,0.0211000883226855,0.0229914277321017
263,263,0.0565484095383895,0.098264373846815,1.0028799430771,0.00660690269945771,-0.00919103178098093,0.00086346226136603,-0.011990345447402,0.0345967906451163,0.000500087687447208
264,264,0.0565977151293865,0.0981894652680498,1.00288319881455,0.00702757520409923,-0.00848177284054923,0.000755956583469662,0.000903756310143673,0.0182186070709272,0.0152048653264422
265,265,0.0566521361367593,0.0981075850939183,1.00288528180665,0.00759163190908062,-0.00798396064805169,0.000719094080559004,-0.0436234588901452,0.0545857285317005,-0.0223364864693851
266,266,0.0567173463342048,0.09801309060035,1.00288627315736,0.00767206701273211,-0.00775797566774721,0.000778034697897779,-0.0116641369352822,0.0842107502652253,-0.00599511274289378
267,267,0.0567938275469208,0.0979099648703129,1.00288687714471,0.00760004622920401,-0.00786978666158359,0.000889837603363904,-0.0172293025895597,0.0805872014545491,0.0166661830803312
268,268,0.056873069251305,0.0978066732080225,1.00288697232464,0.00741104764457567,-0.0079044526749147,0.000996746039734848,0.00755310185479632,0.108849261041123,0.0424733115775326
269,269,0.0569465600480179,0.0977116797107478,1.00288643687633,0.00740888051876446,-0.00793699107408208,0.00105830230288959,-0.0215449923883462,0.0445107149638811,0.00577072012160192
270,270,0.0570057879062396,0.0976334472305116,1.0028851487172,0.00742238112420155,-0.00760861721625657,0.00101197648610779,-0.0347004808223698,0.0652380815656877,0.01428705372523
271,271,0.0570499625660588,0.0975728773578782,1.00288306793925,0.00735897718649513,-0.007043656014332,0.000831285232862381,-0.0478142081755353,0.0291570116094515,-0.0245963421912421
272,272,0.057084758324499,0.0975243265252311,1.00288027638695,0.00703365032046688,-0.00623998216717989,0.000541927212512651,-0.0501244219122085,0.0124959024327704,-0.00481643088160365
273,273,0.0571113600927964,0.0974864396778501,1.00287683471769,0.00649321118862007,-0.00500629730997885,0.00020454468013174,-0.0324414563991641,0.0359491203971619,-0.0117063061969961
274,274,0.0571309527313771,0.0974578624028864,1.00287280372174,0.00593475019879385,-0.00352960223997902,-0.000115828841718812,-0.0509412622376545,0.0659699957233459,-0.00215902730615589
275,275,0.0571447207758116,0.0974372409366709,1.00286824440071,0.00539808413375189,-0.00264712475538224,-0.00037144309088837,-0.0782170027598005,0.11083963919317,-0.0210409285800132
276,276,0.0571554545098497,0.0974189936297608,1.00286297728145,0.00463576516870151,-0.00187179771553927,-0.000584467269313283,-0.0837844168444722,0.189773090748646,0.0211352062267035
277,277,0.0571623660753693,0.0974040232343266,1.00285696453006,0.00341693865916345,-0.00106312785026044,-0.000794373137771077,-0.0791155835589881,0.189340374377132,-0.00768486276792796
278,278,0.0571612704095167,0.0974007035408875,1.00285047927733,0.00231320727038739,0.00073622475986268,-0.00100637904139365,-0.0689519297762054,0.176153968026162,0.00236407030778365
279,279,0.0571479789830882,0.0974174085887024,1.00284379384572,0.000867987491009708,0.00275454453437204,-0.00112871517761639,-0.0115110125988629,0.14927774338661,-0.00661720104910835
280,280,0.0571182994779393,0.0974625120737664,1.00283717986369,-0.000427426716994683,0.00487250437877093,-0.00115312720071263,0.0145008715609059,0.15106870719021,-0.0502685316075186
281,281,0.057062697993347,0.0975430760034342,1.00282957929852,-0.00194176920258536,0.00681061883514955,-0.00104110587313487,0.0165635009974177,0.137084136038141,-0.0174904001172361
282,282,0.0569839588835073,0.0976535172175256,1.00282081740475,-0.00342836643603436,0.00889735424737138,-0.000826513151787736,-0.0476170246767335,0.170818229489191,-0.00241851852780904
283,283,0.0568963680592835,0.0977832397817446,1.00281248572955,-0.00491629778058514,0.0112054570850723,-0.000550783448220413,-0.0477989175226105,0.212438844744234,0.0384947395049722
284,284,0.0568142177502053,0.0979216466487256,1.0028061692702,-0.0059776037743405,0.0138453519191519,-0.0002650212340158,-0.114682927119557,0.272477176302632,0.0587572999877212
285,285,0.0567518070212767,0.098058140479554,1.00280344767374,-0.00636294229487523,0.016358937168695,1.4723109219644e-06,-0.0994554037238732,0.300585773433474,0.0745831720085066
286,286,0.0567094824650076,0.0981953076539438,1.00280506695224,-0.00632077801932964,0.0178768455486922,0.000267372505275322,-0.0957591081496968,0.233948228097267,0.0486201336968626
287,287,0.0566777143496412,0.0983402074306756,1.00280997268394,-0.0059154223627998,0.0197277056540422,0.00055008771985913,-0.0860034083526092,0.167965115999243,0.0207658841493742
288,288,0.0566559938149142,0.0984889552414332,1.00281704045282,-0.00575704785450979,0.0216093165638355,0.000810533390408967,0.00766183390051714,0.110019968187644,0.0430973928363448
289,289,0.0566438145541662,0.0986376707538119,1.0028251441445,-0.00500032708572298,0.0222942265506061,0.00104776660664515,0.0221384019690191,0.157558354618538,0.0660864318480425
290,290,0.0566406721824483,0.0987824776494771,1.00283315598101,-0.00392662984353746,0.0217149537663671,0.00125320212326519,0.0180734690414159,0.180394745297703,0.0185624662089288
291,291,0.0566515537535035,0.0989204106958635,1.00284203371559,-0.00242092201827215,0.0206557753875033,0.0014599381799876,0.0829755633632584,0.106629140617852,-0.0248050463458402
292,292,0.0566768058898229,0.099054060443672,1.00285253561813,-0.000857075926405873,0.0187799172118949,0.00170229195613599,0.10863779183885,0.100748932690531,0.0456055666284691
293,293,0.0567089608263965,0.0991878865017546,1.00286323276611,0.00125250248110512,0.0167952086756686,0.00187493214603163,0.106446710117492,0.0103930281319454,0.0319234566006683
294,294,0.0567405450254055,0.0993263473413932,1.00287269267331,0.00310251511995688,0.0157169264037237,0.00192687475216841,0.0379686799369234,-0.109269997267845,0.000127743506441107
295,295,0.0567640794413062,0.0994738998095292,1.00287947809657,0.00423988997342121,0.0144754315953306,0.00177244189094485,0.0071301301852532,-0.0462083429512412,0.018690952215374
296,296,0.0567780444800959,0.0996326182372676,1.00288356992221,0.00476720211441234,0.0128296697831103,0.00128862598836387,-0.0628277884079576,0.0387602810626322,-0.0137645571722661
297,297,0.0567874198617443,0.0997995339873485,1.0028859329433,0.00438429818776669,0.0105969377127411,0.000514380914292552,-0.0416674693038806,0.132653466505331,-0.0599539227274722
298,298,0.0567944738720606,0.0999715377519506,1.00288659958908,0.00372909468623747,0.00882106985091895,-0.000355176927360735,0.0327425083820511,0.0882585694071248,-0.107184578955703
299,299,0.0568014775747898,0.100145520033268,1.00288559783054,0.00284703998130872,0.00784423207247865,-0.0011047668737521,0.120109073768087,0.0543839152468095,-0.113510202035249
300,300,0.0568107051951505,0.100318371504857,1.00288295094924,0.00257133384070426,0.00750843884451559,-0.00152469105454171,0.126250265366907,-0.0211664643223567,-0.101890926800372
301,301,0.0568175966104327,0.100491731320242,1.00287792835666,0.0032043822151506,0.00841338642715125,-0.00152125094614337,0.10789907583831,-0.119535787601913,-0.0490300385024465
302,302,0.0568206365194843,0.100667674559687,1.00287051310018,0.00410148727674312,0.0090386377633046,-0.00120984692060527,0.093731747807326,-0.117651104452173,-0.0457638930771134
303,303,0.0568266683188182,0.100843743543299,1.00286179388638,0.00501552497214314,0.00932072627812174,-0.000742362067937428,-0.00601520388992494,-0.146919796157185,0.00792083580206389
304,304,0.0568425350336351,0.101017477451978,1.00285285721688,0.00555218965300364,0.0103047617437428,-0.000270143762625897,0.0426407560925548,-0.160200263502617,0.0596328996294731
305,305,0.0568750794607802,0.101186412724802,1.00284478749823,0.00661065820079509,0.0108939894912731,6.54061982049528e-05,-0.00532120337315809,-0.0966377264107728,0.115799081788389
306,306,0.05692732807982,0.101349790816396,1.00283738316749,0.00842379389908673,0.0108320064037644,0.000294729374441486,-0.0228588819911484,-0.0321705911377957,0.113309082532199
307,307,0.0569947213025341,0.101509249328791,1.00282991621055,0.0106391746883714,0.0103089273298006,0.000536619448320185,0.0201849676874926,-0.0200802262448268,0.0253003969559297
308,308,0.0570727224158623,0.101665917693259,1.00282267960862,0.012383742020824,0.00928638105850775,0.000741623872625542,0.14668864756769,-0.0182852764231889,-0.00255871760746497
309,309,0.057156793308887,0.101820925632279,1.00281596600185,0.0136962847683826,0.00817457999688666,0.000882061804433677,0.164647923265248,0.00136106274356525,-0.00861103138230676
310,310,0.0572423941280779,0.101975403033013,1.00281006773091,0.0143564901433192,0.00824224625700905,0.000927453066925082,0.129411313885538,-0.101437916159558,-0.00649234517521806
311,311,0.057335307139713,0.102130258288318,1.00280478470745,0.0149154343483764,0.00889443321289486,0.000809856957233533,0.0376303145797421,-0.152392262521071,-0.0151514815837523
312,312,0.0574385590303292,0.102284734559845,1.0027999183289,0.0153786458577056,0.00976976008882038,0.000574248105201468,-0.0103468961117642,-0.141806710031777,-0.0714763303829442
313,313,0.0575434754303814,0.102437466426397,1.00279576283098,0.0152912938045331,0.0106251077074953,0.00028900315420782,0.0562276005465668,-0.120964939138578,-0.0661410150542521
314,314,0.0576413816285516,0.102587091558951,1.00279261222755,0.0147449424652444,0.0106922344751702,5.35033263632075e-05,0.114592561200933,-0.0689456987006555,-0.0275988073326966
315,315,0.0577236021696244,0.102732250174893,1.00279076032481,0.0140588009285139,0.0107968072256183,-5.36764187195485e-05,0.144416355950696,-0.121450016888399,0.00459637032224265
316,316,0.0577832551598432,0.102877019986565,1.00279030932208,0.0138714559824381,0.0104846456793819,-1.40784382527267e-05,0.104521179737574,-0.133551849744323,-0.0141416081359945
317,317,0.0578261216121965,0.103022311480181,1.00279106114637,0.0135780759362947,0.0101569218428185,0.000111942584173069,0.0650163850107789,-0.162665459280179,0.00148611344610739
318,318,0.0578625199181209,0.103162014093836,1.00279285964317,0.0136045276998744,0.00925344237776358,0.000304052240425315,0.0518134117496026,-0.0963512883452176,-0.018380153789593
319,319,0.0579027693296238,0.103290015951184,1.00279554937191,0.0135470392656758,0.00862700745450237,0.000548513500271459,-0.0327108697088692,-0.114548518942014,0.0114677589825163
320,320,0.0579571904397359,0.103400204288545,1.00279897539982,0.0132545417401464,0.00813256611549465,0.000822020165589884,-0.0375626585502334,-0.0962385229413135,0.0671720848203033
321,321,0.0580280589992441,0.10349069843755,1.00280314436571,0.012656120491905,0.00784121789011772,0.00121659480019926,-0.0458654957687635,-0.0624328707859406,0.0637933382074783
322,322,0.058108492343157,0.103565573711859,1.00280816095235,0.012185899764974,0.00744901593878992,0.00172861156981677,-0.0802315767492115,-0.0439798930822737,0.0758354655594628
323,323,0.0581950759640343,0.103627650655536,1.00281401692198,0.0118224252603,0.00685342031927437,0.00224362536400846,-0.0883032189964576,-0.0304235537878131,0.0942447841759385
324,324,0.0582843972118398,0.103679749544464,1.00282070326284,0.0117302538440907,0.00643596704451774,0.00265309984616878,-0.119513527576643,-0.00897477342618921,0.0292727725399716
325,325,0.0583730451210124,0.103724690447305,1.00282821015702,0.0114980697358281,0.00570526912882094,0.00284917876622943,-0.0514328794460453,-0.0412486996441578,0.0567381269925868
326,326,0.0584653211229535,0.103759130630772,1.00283717967226,0.0120252756540928,0.00522316597502434,0.00275476806625029,-0.0248704749189286,-0.0563604294056143,0.0458710334508764
327,327,0.0585635019077805,0.103781191577989,1.00284761932069,0.0126553199938247,0.00416440158915032,0.0024822024368434,0.00785422309847638,0.00685892310533472,-0.0233514794234137
328,328,0.0586611395198262,0.103795887967455,1.0028585659978,0.0130713098963903,0.00398279958547774,0.00207588802657262,0.0126004722357813,-0.0233703304443395,0.003319065264271
329,329,0.0587517847992426,0.103808231594464,1.00286905535652,0.0133234500700055,0.00421123026840335,0.00164374330259064,-0.0110522430986703,-0.0971149365086133,-0.0144530208953965
330,330,0.0588289874458914,0.103823231579061,1.00287812183233,0.0126704222250389,0.00407736551488412,0.00124152694317332,0.0103249667129148,-0.0674415635505946,-0.0407290352236932
331,331,0.0588987019663549,0.103839891983966,1.00288599963058,0.0111106828587159,0.00319174896302831,0.000808867632398477,-0.0290917029392003,-0.0130317414240517,-0.032494599207433
332,332,0.0589652271623846,0.103854867972235,1.00289333219617,0.00863867772722402,0.00238571614859213,0.000296521353091713,-0.0431361825481293,-0.0609910319835987,-0.0101368844410435
333,333,0.0590196292665892,0.103869647868415,1.00289976584743,0.00568871738961166,0.00133163376674999,-0.000208870135012806,-0.0496175172126802,-0.0597830862219559,-0.0462723639260181
334,334,0.0590529764982104,0.103885725207867,1.00290494430538,0.00284730825376788,0.000712144597714269,-0.000657125201127974,-0.0250166405949565,-0.0150719810631561,-0.0869294220947345
335,335,0.0590563370472712,0.103904596938975,1.00290850977056,0.000772669191239396,-7.91980338730151e-05,-0.000966757454711809,-0.0102770402262918,0.0246893554031096,-0.0987243737254649
336,336,0.0590255826308877,0.103931795884559,1.00290819294178,-0.00142776776867928,-0.000561460554811513,-0.00108790659944791,0.00581332181773963,0.18193224598845,-0.0926361231714929
337,337,0.0589666586288866,0.103966327582999,1.00290423369212,-0.0034984444259531,-0.000131528332694569,-0.00109127595583371,-0.0489871929751267,0.188373367990225,-0.0654351932331301
338,338,0.0588857429418005,0.103999895698893,1.00290003779021,-0.00569590111158616,0.000557622017196899,-0.00101260340830064,-0.128360525010219,0.256594228095262,-0.00777132876192792
339,339,0.0587890198631215,0.104024200773859,1.00289900837987,-0.00785803184615001,0.00189381140945395,-0.000888723568068562,-0.241343389966054,0.269580084969414,0.00589142883199423
340,340,0.0586826823327325,0.104030941274626,1.00290454591247,-0.0100472163765767,0.00350638253101278,-0.00076299469523658,-0.279311613640179,0.307726961711455,0.078776208671465
341,341,0.0585709014953855,0.103998975681394,1.00291844850575,-0.0115010166170865,0.00455265394372879,-0.000531896197852488,-0.305016121231778,0.280587976794945,0.0652089486772405
342,342,0.0584495516457156,0.103933828236903,1.00293844881229,-0.0130067723217844,0.00476434862529164,-0.000171920180489772,-0.216742648888903,0.243165806090496,0.0228026978049732
343,343,0.0583123837577181,0.103867196576423,1.00296185346413,-0.0143404685169365,0.00430403542989311,0.000176111343866043,-0.144630504950742,0.161909029727953,0.00712840529937505
344,344,0.0581531432457388,0.10383077924747,1.00298597822813,-0.0161487920729471,0.00403051103787298,0.000406204269671374,-0.0918436422100918,0.0545505420881001,-0.0117688045419562
345,345,0.0579655698442726,0.103856276945463,1.00300815073936,-0.0180252340976066,0.00456843353563975,0.000381716972115403,-0.0569916099052359,-0.0193096243999946,-0.0393667030924575
346,346,0.0577477515777986,0.103967528627696,1.00303113296531,-0.0198687878125893,0.00656427569003549,9.67573547536229e-05,-0.0160275902853683,-0.0239093867700698,-0.0361658975641525
347,347,0.0575038509921993,0.104143398653191,1.00305674029147,-0.0209411732350116,0.00975428254058169,-0.000365181910350665,0.00162912784845838,0.0611215423905297,-0.0560699136100047
348,348,0.0572367185611732,0.104348126893706,1.00308090060455,-0.0217535576420974,0.0136009708990355,-0.00098252073297391,-0.0402241659096218,0.149215252605996,-0.0884439314559044
349,349,0.0569492068809399,0.104545950401668,1.00309956060056,-0.0228704393489445,0.016815130385725,-0.00175698902149524,-0.0532104593545903,0.283393614575778,-0.0911691797914815
350,350,0.056644171176223,0.104701105048884,1.00310869872934,-0.0246141439793051,0.0186951234665155,-0.00264693651450581,-0.107976623183534,0.37939064168059,-0.090050676227981
351,351,0.0563089215439536,0.1048084920275,1.00311354796964,-0.0276290110969202,0.0182729653284292,-0.00357728076470328,-0.132015212293006,0.490504531875655,-0.120171912952758
352,352,0.055941558063306,0.104891973610349,1.00311692499964,-0.0317300385880338,0.0165982117953141,-0.00456917848211383,-0.134531330638548,0.490162578138768,-0.165428687761629
353,353,0.0555611170677305,0.104959208639863,1.00311125273676,-0.0359143060128953,0.013783162390034,-0.0057407923643139,-0.199262038449017,0.486776966988578,-0.141465824891997
354,354,0.0551866238883808,0.105017821948987,1.00308900686951,-0.0398410367627499,0.0103200614950861,-0.00716882948984758,-0.136497918407188,0.382567955435118,-0.108931665792326
355,355,0.0548370883143637,0.105075391613065,1.00304272727099,-0.0417599931561737,0.00712078452565145,-0.00895997662363081,-0.0423242546531783,0.32696427357147,-0.210796775760726
356,356,0.0545028372947424,0.105138735734778,1.00297724459306,-0.0410614540670636,0.00459245751133708,-0.0112763432318258,0.169947748856808,0.293883381618077,-0.285192037906303
357,357,0.0541711422047277,0.105202672076927,1.00289796550985,-0.0381252646219164,0.00282289297332385,-0.0140514197891402,0.285980796099396,0.153679504610091,-0.29675878571405
358,358,0.053856424581898,0.105256770887828,1.00279834354335,-0.0334503130748825,0.00169178908897251,-0.0171227333455582,0.24903557633613,0.0311251375176581,-0.378595679461353
359,359,0.0535731269947074,0.105290667020518,1.00267181354053,-0.028712397599065,0.00109514536603796,-0.0202233273101521,0.141446959127467,-0.0130438552080475,-0.272057971237516
360,360,0.0533357205225492,0.105294075284345,1.0025117809829,-0.0249606270794283,-0.00118374621163816,-0.0230957034436085,-0.0719539811981773,0.0169776464326675,-0.289832904936981
361,361,0.0531595709960302,0.105272254703863,1.00230710223264,-0.0224981352509673,-0.00485453911806817,-0.0258964518761499,-0.22440064884743,0.0269129172973004,-0.267866320685651
362,362,0.0530350222649445,0.105232082482963,1.00206282976568,-0.0208273588250935,-0.00944340755361794,-0.0288658676177623,-0.359550369899124,0.0402865462284293,-0.307226283756837
363,363,0.0529390291405423,0.105165779690729,1.0017964456161,-0.019521292716636,-0.0154420257587481,-0.0316529987760964,-0.354070716514903,0.102889007971362,-0.372180057585198
364,364,0.0528485307569793,0.105065577357959,1.00152515127354,-0.0188307993252174,-0.0215750831523949,-0.033984441526613,-0.135777149677697,0.0562131041332724,-0.246766863403324
365,365,0.0527404503578277,0.104923710840333,1.00126584933236,-0.0177812430988685,-0.0265272098855175,-0.035559792866333,0.0537953254805235,0.0245622921346786,-0.194036569765898
366,366,0.0525974696684522,0.104713825301462,1.0010201699927,-0.0164350344252341,-0.0304355806945744,-0.0365833476268584,0.205838120636692,-0.0594730563767414,-0.186088192674556
367,367,0.0524349018524733,0.104441195275744,1.00077685078205,-0.0146826902622429,-0.0342687428038729,-0.0372133480388224,0.349333820272746,-0.0478229059772259,-0.142909845362305
368,368,0.0522786414107488,0.104145455433323,1.00053319156437,-0.0133306030600526,-0.03706753090342,-0.0370077627991275,0.362344629173787,-0.110092672663148,-0.0319482496493222
369,369,0.052154634605617,0.103866174802802,1.00028644637437,-0.0118290956060342,-0.0397881676669726,-0.0355664908577339,0.376017006148702,-0.0635301825595419,0.153364902348628
370,370,0.052088880292597,0.103642857074735,1.00003382641497,-0.00904996305859754,-0.0410730589406121,-0.0325331022574524,0.284241891045328,-0.168927028658708,0.292066468189652
371,371,0.0520826690730804,0.103498353136808,0.999766181298644,-0.000470180989029829,-0.0413524044313308,-0.027860997226784,0.428742455050948,-0.29117774831439,0.0963449620148928
372,372,0.0521187021565753,0.103406184783882,0.999485375450597,0.00727414829421959,-0.040144513581147,-0.0204700163122226,0.421397458033097,-0.488996215666441,0.0873656928044688
373,373,0.052195159809153,0.103331941338038,0.999204927488475,0.0126688084067456,-0.0374535975975719,-0.0118535873316289,0.31377781330567,-0.641423096473156,0.310001107997254
374,374,0.0523102642450113,0.103241372144388,0.998938117678129,0.0154484449290843,-0.0340945289225053,-0.00340327086726768,0.18199999364531,-0.7335018197192,0.575347722072113
375,375,0.0524622666029906,0.10310036717595,0.998698009484228,0.0155664885713297,-0.0310976513295868,0.00325650818969837,0.0711838147887892,-0.732028795220121,0.864663904569281
376,376,0.052700050298586,0.102906097663042,0.998485251259766,0.020732647404592,-0.030244302719335,0.0061413720587139,0.0450677831722998,-0.783397973434454,0.538851036334174
377,377,0.053024852839959,0.102681542796053,0.998290673410031,0.0257661528965612,-0.0302655485530257,0.0072811534820396,0.0252153609901292,-0.713314063674885,0.320217485471988
378,378,0.0533634571439617,0.102431323620044,0.998112395348798,0.0303965433772867,-0.0309193935327662,0.00744335358728632,-0.0319879349918355,-0.686096702033772,0.0971455428956335
379,379,0.053642656569909,0.102159977930616,0.997948450148057,0.033504807850356,-0.0310438893169168,0.00727982657586822,0.0879342499626921,-0.759596501222963,0.0330262769156469
380,380,0.0537892659390007,0.101871969864613,0.997796807599564,0.0346273526950392,-0.0310619857886722,0.00765519187660058,0.199733633146137,-0.753524587351039,0.0337448595364944
381,381,0.0537792380871202,0.101571014498813,0.997652301772268,0.033546619986035,-0.0309455446312216,0.00877443599486479,0.268309320721065,-0.737305483336181,0.138228159402726
382,382,0.0536613908046326,0.101254091480705,0.997515801428559,0.0315893510906924,-0.0309724265135335,0.0101967982704369,0.170291563219495,-0.674348800553906,0.14730281093972
383,383,0.053471844033429,0.100915494281368,0.997394350259021,0.0278205635284205,-0.0308485236375829,0.0114598775979784,0.304196589540879,-0.648230842335285,0.279620144732151
384,384,0.0532467074883508,0.100549500356799,0.99729505860042,0.0242036463509605,-0.0311802392513165,0.0124711674511161,0.183064653924417,-0.674703153922501,0.224745148336363
385,385,0.0530220854295571,0.100150381796689,0.997225096362537,0.0208079565021657,-0.0328646074037947,0.0129216696685438,0.119328599820542,-0.723968738173976,0.166463850377521
386,386,0.0527866196433359,0.0997252903061133,0.997187903145817,0.0167054662612565,-0.0358058852112021,0.0128770400051839,0.0504802238654508,-0.726539537330912,0.116590269061717
387,387,0.052516210101876,0.0992779363146372,0.997178620742165,0.0115862399353065,-0.0399652505427857,0.0125428594098018,0.0267719624459611,-0.704743280524035,0.0974077277411533
388,388,0.0522278522025314,0.0987974493582006,0.997192047767765,0.00636706947293525,-0.0446936065543559,0.0119607353225224,-0.000961254257356357,-0.682536317662147,0.0356854903510753
389,389,0.0519385496311724,0.0982729914856489,0.997223010144002,0.00180107321662161,-0.050116459141945,0.0110745843501039,-0.0687441987346818,-0.528523623405534,-0.0204432029693158
390,390,0.0516653162493212,0.0976937633169897,0.997266339050337,-0.00166103123174635,-0.0557461490637166,0.00977167764886312,-0.121532515174967,-0.442462953553184,-0.102159881003764
391,391,0.0514177724280233,0.0970617220197791,0.997324870779028,-0.00480748358783527,-0.0616864065693097,0.00779688222851124,-0.14311453491668,-0.279759229167273,-0.124326541816848
392,392,0.0511845592987411,0.0963840812522707,0.997402175533086,-0.00741160682321962,-0.0679563080217324,0.00513219770956184,-0.17210276385571,-0.288543403838864,-0.192036948663388
393,393,0.0509512226855073,0.095657950432207,0.997494201025297,-0.0101076240970639,-0.0741077305762207,0.00203928403039705,-0.130350672979822,-0.332320608598993,-0.247790457444342
394,394,0.0507033020627315,0.0948804325698893,0.997596934676618,-0.0124637701194452,-0.0795114746764053,-0.00120845836185148,-0.0706771649428901,-0.398086610157426,-0.319642594679168
395,395,0.0504263348254006,0.0940486228230985,0.997706416063677,-0.0151891632976024,-0.0846915692909758,-0.00430174429979408,0.0704429707044635,-0.44610878773687,-0.371721293537755
396,396,0.0501051504905837,0.0931548760129498,0.997831959969344,-0.0208449251442275,-0.090802283152687,-0.00661317273353144,0.162711965855294,-0.421833035977295,-0.588267809519068
397,397,0.049749366100493,0.0922011980776872,0.997976586738837,-0.0252238330717877,-0.0968758763338797,-0.00949651108656092,0.331591479236104,-0.399430175952373,-0.786616318833069
398,398,0.0493817056351098,0.0911991160027073,0.998126922385179,-0.0276690366459316,-0.102121581334178,-0.0125425497950143,0.406109765140961,-0.473828763282267,-0.852105070015018
399,399,0.0490248961940127,0.0901600976921672,0.998269556569866,-0.0281994975278631,-0.106550266373259,-0.015474760935518,0.482352811408945,-0.49842986073046,-0.707353186996888
400,400,0.0487016621463654,0.0890955440199337,0.998391030795609,-0.0257883603255199,-0.110999771907829,-0.0178358253012125,0.41380619894121,-0.386638136823047,-0.428118567920749
401,401,0.0484230365181291,0.0880148326231771,0.998484488231573,-0.0281372463589352,-0.115691149418766,-0.018295688678183,0.204411643779952,-0.334953269025905,-0.19015512939535
402,402,0.0481738337261999,0.0869102441930661,0.998559432989722,-0.0313722267541867,-0.119866648644964,-0.018327741588535,0.172194583877844,-0.242514419670941,-0.120264944152322
403,403,0.0479374782927156,0.0857675491549606,0.998626746443533,-0.0346993535148211,-0.123635715714496,-0.0174994885042597,0.175169332831223,-0.198072811689976,-0.121048301396284
404,404,0.0476974451120122,0.084572622080184,0.998697071484107,-0.0372447174581682,-0.128092609315182,-0.0154763700149658,0.0174388939014748,-0.0877109545259794,-0.00312244292706957
405,405,0.0474372653543846,0.0833114437141785,0.998780807146806,-0.0400630480822258,-0.132971665833656,-0.0111292252503794,-0.0677911729784867,-0.094214874151556,-0.0843256784096733
406,406,0.0471514170968061,0.0819008910468886,0.998865554047904,-0.0434313967868639,-0.13939608725415,-0.00432758045058378,-0.0386607127001188,-0.143300992546701,0.0467593479566901
407,407,0.0468509907983607,0.0803504532831154,0.998944576348871,-0.048197504522517,-0.148280568623847,0.00435300053073207,-0.00465016647303628,-0.385692150324694,0.322262117562518
408,408,0.0465444970867063,0.0787850800620085,0.999036342135742,-0.052510146198869,-0.154667598340583,0.013651005227294,0.20237996192941,-0.793992773876982,0.599906409753123
409,409,0.0462404450665589,0.0773296818617639,0.999158937751403,-0.0557341002504064,-0.154796275560476,0.0231619046913681,0.254924848130319,-1.03014111630527,1.1543875907807
410,410,0.0459473138238317,0.0761091293734074,0.999330108004229,-0.0561269884282136,-0.149158080364624,0.0328021960108201,-0.111709822192409,-0.555141234250214,1.72720494244039
411,411,0.045620276255972,0.0752115766368856,0.999574213860139,-0.0513454157911134,-0.141935038989309,0.0433993212738769,-0.452059385660515,0.158831403821836,1.77756568120884
412,412,0.045253755885282,0.0745538010675508,0.999878729735831,-0.0447152298227219,-0.124322462933569,0.0554958209908897,-0.680886756919996,0.201397271272981,1.71405405589947
413,413,0.0449150123099244,0.074003578807765,1.00020622723257,-0.0363837223862737,-0.0995954861849268,0.0671225346210818,-1.01121886000463,0.175236255293591,1.28787961824144
414,414,0.0446712635185458,0.0734287163715277,1.000519669652,-0.0258155330874255,-0.0802961447673964,0.0760879290112769,-1.05182192681681,0.302868124753705,0.597783038960131
415,415,0.0445897047090681,0.0726971133224418,1.00078242597656,-0.0166584677286325,-0.0735100486745711,0.0800868346276222,-0.565608156477803,0.41672648806081,0.170597057841398
416,416,0.0447316754289622,0.0718057369847511,1.00101020856393,-0.0105415189735955,-0.078952497637133,0.0785504797918445,-0.348640655588158,0.231563277737023,-0.294036442467063
417,417,0.045052292795071,0.0708430747945909,1.00122816614055,-0.00840961523069674,-0.0879535124117658,0.0729315926243215,0.139678130763365,-0.140279446402836,-0.404466198132431
418,418,0.0454593881759786,0.0698142682442044,1.00141423693106,-0.00924421731179004,-0.0990219548918174,0.0641970772682889,0.664039807985668,-0.467984171797719,-0.379136306941202
419,419,0.0458607521794584,0.0687242033438406,1.00154652963908,-0.0107717452549127,-0.109386385795595,0.0534794746144311,0.884071555119297,-0.475702529805119,-0.397501665982515
420,420,0.0461641227400847,0.0675773964088165,1.00160345296219,-0.0104330288987531,-0.114871226756255,0.0421545445474697,0.376671355910205,-0.50063707010608,-0.613505179282065
421,421,0.0463762646517929,0.0662829253257774,1.00157688060838,-0.00864476035952873,-0.112255485172059,0.0287715273975842,-0.114457626246922,-0.525020935106406,-0.785126044461631
422,422,0.0465583458177846,0.0648374081352024,1.0014840327914,-0.00782794037225478,-0.104492783947373,0.0127718372397918,-0.427565023928313,-0.482443637723986,-1.04683949385009
423,423,0.0466998142041585,0.0633762460700153,1.00134063998502,0.00027545977422146,-0.0970794970372927,-0.0044210060700094,-0.386728238676653,-0.128792979166928,-1.31421972436033
424,424,0.0467903356146211,0.0620348877011129,1.00116075897675,0.00885819996270281,-0.0915115571645067,-0.020091046648653,-0.292769770562503,0.258542668119224,-1.60436310775274
425,425,0.0468198146250889,0.0609489347687963,1.00095658869768,0.0124164795958471,-0.0842811664056001,-0.0316351174852814,-0.0785264790002303,0.440810102778048,-1.53347311419246
426,426,0.0467791807598374,0.0602056618534432,1.00070737110201,0.00985812850985054,-0.073689890085929,-0.0393083399096838,0.239821633612765,0.305446393302971,-1.32207547822869
427,427,0.0466753209845885,0.0597141462526706,1.00040432749232,-0.000484741500132515,-0.0608884005607856,-0.0447049459416136,0.695393157526288,0.235899773108251,-0.834160717987669
428,428,0.0465222072144412,0.059343116404264,1.00007609909637,-0.0158747730765255,-0.046627369402735,-0.0479264090500309,1.48315887192141,0.614531772501784,-0.256954676765853
429,429,0.0463337521558586,0.0589616365183666,0.999751126819625,-0.0219678059658119,-0.032071694799154,-0.0484183015511127,0.367775926067095,0.42550267561676,0.142053833396377
430,430,0.0461238178386504,0.0584390628515647,0.999457664352008,-0.0248970797903963,-0.026107476045641,-0.0468099972523975,0.829493105650252,1.1081048350484,0.0240682244032425
431,431,0.0458080770643895,0.0577747329529898,0.999171707640655,-0.0241776216097938,-0.0288576429643747,-0.0418574105817259,0.872844381163936,1.56216527182566,0.728425243665015
432,432,0.0453772674168661,0.0570561383117062,0.998873290734548,-0.0175405470244642,-0.0366933429992667,-0.0333693418270803,0.29115115689213,1.54102125088256,0.731117898345726
433,433,0.0449578492608655,0.0562850051023435,0.998596646159218,-0.00830744209161361,-0.0486484010306981,-0.023343517814865,0.0149549641181196,1.49515458530136,0.445608454849053
434,434,0.0446763407696423,0.0554629940500492,0.998376138260146,0.0014897285127108,-0.0615717079982627,-0.0142069585759489,0.0465398617920422,1.28873009731856,0.568093960121108
435,435,0.0446593243959723,0.0545917002184164,0.998246248538887,0.0120147116199625,-0.0705220461891055,-0.00728543250005655,-0.266746408451311,0.752927165344036,0.36968312499739
436,436,0.045029149457512,0.0536251683852182,0.998222953571564,0.0245954782583941,-0.0777461309901897,-0.0032737089756209,-0.398619776571711,0.253052210075878,0.25315152134924
437,437,0.0457015995077701,0.0525625978932806,0.998282444923347,0.0388978283715106,-0.0838961188019499,-0.000603271990578714,-0.448919274371136,-0.137002305225963,0.167405580648993
438,438,0.0464934609068524,0.0514730295353485,0.998399562032238,0.0522112239801837,-0.0887722223623666,0.00113311299594629,-0.264598098635953,-0.187575284866647,0.0693894993632533
439,439,0.0472214804529814,0.0504252340533382,0.998549258998535,0.0617074425494495,-0.0922509048132058,0.00191338537281137,-0.00474083099346089,-0.104529633585338,-0.0362894593246701
440,440,0.0477023546074082,0.0494877805777682,0.998706627894022,0.0642714177250887,-0.0914651368226452,0.00249391051151449,0.206296945616613,0.111812770939987,-0.0874047094970994
441,441,0.0478881920798728,0.0486624609429617,0.998896091498073,0.0576537257038536,-0.0850142925144586,0.00256918112726736,0.432203754667677,0.323728159809977,0.0479556849795837
442,442,0.0479013841237161,0.0479031393078239,0.999133724792454,0.0450817018927736,-0.0759975928447023,0.00180427129912955,0.489248404974814,0.701435226903114,-0.0387660317618162
443,443,0.0478139435529528,0.0472065742212537,0.999382126709238,0.0298662643941214,-0.0657445318806276,0.000772924491410053,0.391769285826527,0.92814864320063,-0.0986796052217851
444,444,0.0476977488801025,0.0465697425021317,0.999603900460388,0.0162875914135764,-0.0578324113834149,-0.000290618606676326,0.15128925752335,1.13203762484519,-0.196257876392048
445,445,0.0476245583849243,0.0459897780670832,0.999761693588565,0.00681322145038881,-0.0519239389864437,-0.0009312552308944,-0.038654103884034,1.0795501527966,-0.175531179509873
446,446,0.0475642912955105,0.0454680990099998,0.999850836444933,0.00192545665599494,-0.0476651850518862,-0.00108885303102083,-0.173977174130625,0.911450676095846,-0.101306043867675
447,447,0.0474689761818055,0.0450068179928299,0.999895944283259,0.000246478475094562,-0.0439361967710556,-0.00104549153532871,-0.349570145388791,0.6787723744865,-0.0729502293859729
448,448,0.0473835186256923,0.0446041700433069,0.99990375277839,0.000917642172941149,-0.0393259382947964,-0.000824058329360703,-0.48590390485614,0.45502113884428,-0.0450321746044163
449,449,0.0473528809457878,0.0442583682024752,0.999881100908101,0.00126719550181359,-0.035692861675479,-0.000809817744080105,-0.504940289580116,0.370641076836521,-0.0164688090240676
450,450,0.0474220680344688,0.0439675955129945,0.999834882159682,0.000513742239538334,-0.0311114730563423,-0.00108260413170886,-0.524537733413925,0.2141540311771,0.0253083655659959
451,451,0.0476155946303848,0.0437202883304308,0.999760099998312,-0.000811386286279566,-0.0264877691841951,-0.00175550019361614,-0.571273850578743,0.188345393215958,-0.00164470085262158
452,452,0.0479034642163907,0.0435176438055374,0.999652392957952,-0.00241755801928116,-0.0219342901296881,-0.00282428870330019,-0.445909040247138,0.200055934215979,-0.073735700381701
453,453,0.0482489291083142,0.0433769666601079,0.999519574005379,-0.00445988204168274,-0.0167095042871328,-0.0040469466419139,-0.287626728658364,0.20885709248724,-0.0465417712876977
454,454,0.0486152461130722,0.0433156024015414,0.999369389775132,-0.0064752277528748,-0.0107996218718558,-0.00516203787648894,-0.24312426606964,0.251603558231478,-0.168389030486572
455,455,0.0489656830129322,0.0433509639308754,0.999209510629037,-0.00933579443946039,-0.00416949370243331,-0.00590082071175755,-0.183368067920687,0.308219224195095,-0.175894949303529
456,456,0.0493119840324024,0.0435021110207722,0.999024934518951,-0.0132244962793417,0.00294765989740359,-0.00642351515180569,-0.0653425188048369,0.353717199282595,-0.0939223254375085
457,457,0.0496786220935813,0.0437575150649809,0.998810706452107,-0.0169562978093484,0.00976713156089408,-0.00682164740162399,-0.123018921388617,0.393769624716799,-0.0288477666041176
458,458,0.0500479645011198,0.044088689706133,0.998589446022316,-0.0202649667505278,0.0164912579897898,-0.00705448443430591,-0.163266565326155,0.436607621985535,0.00747643570557381
459,459,0.050402377155431,0.044467029307927,0.998383685624322,-0.0231961234506751,0.0235705806590464,-0.00718020988320671,-0.132204847982913,0.414699001125421,0.0937709880678885
460,460,0.0507242327202422,0.0448638110400089,0.998215872255291,-0.0253395817572766,0.0301446359139188,-0.00731573907991486,-0.0773146379980017,0.341301764466253,0.230540698914367
461,461,0.0510188044821401,0.0452845748850741,0.998094947801912,-0.0265428987215523,0.0358568788719614,-0.00746276517707282,-0.0306118965346699,0.283326282098668,0.00314650429689878
462,462,0.0512978587734042,0.0457482227943297,0.998005940932515,-0.0261658474213034,0.0405633771617537,-0.0076506971057759,-0.0524341331293862,0.262619647461932,-0.208354672366303
463,463,0.0515535204046848,0.0462461059305405,0.99793536568795,-0.0250506674553178,0.0441223171742098,-0.00787409465098824,-0.0598773156812774,0.375081348937314,-0.374726224939377
464,464,0.0517778953709362,0.046769714853914,0.997869718711388,-0.0240134182177086,0.0483532858066227,-0.00820370974770952,-0.117179293164941,0.442762473429317,-0.415487418054523
465,465,0.0519630589081925,0.0473106773855718,0.997795474713909,-0.0233347530220867,0.0527982488106669,-0.00877617587543291,-0.0995802754638196,0.497265939683702,-0.279780608163061
466,466,0.0521113735422591,0.0478514623751303,0.997713608298731,-0.0244300878606165,0.0594247185820483,-0.00989568799065438,-0.171125321071265,0.489746828297166,-0.278090920191804
467,467,0.0522281037177104,0.0483977895223583,0.99763317017269,-0.0275348618732632,0.0676438069584628,-0.0114110790715404,-0.137265101137473,0.470319983414136,-0.20351806670504
468,468,0.0523096427601484,0.0489762614971116,0.997552666478572,-0.0311560889384447,0.0762605301101099,-0.0129456152757225,-0.104418361408611,0.356569399289658,-0.140146306633718
469,469,0.05235237709262,0.0496134744287891,0.997470513782641,-0.0330431616884162,0.0830435076963847,-0.0141460217255484,-0.138112136738529,0.359828849919285,-0.136645946339359
470,470,0.0523526886763212,0.0503360128694638,0.997385056441411,-0.0317038794210988,0.0878285462108791,-0.0145832197783182,-0.181655928316342,0.406422162399672,-0.0994434055712687
471,471,0.0522979248978376,0.051163499287323,0.997287402887055,-0.0256034824855079,0.0910037777909652,-0.0141811743149244,-0.288748587977271,0.388680962654917,-0.16039636294886
472,472,0.0521904014764824,0.0520783957506472,0.997178533235882,-0.0175171396843095,0.0941979388875206,-0.0130837901779511,-0.251532215356657,0.313836773071947,0.0139667714068964
473,473,0.0520489964904652,0.0530514506239476,0.997071626623848,-0.00977421019089235,0.0965772495739542,-0.0100128479561585,-0.287937795778344,0.433328338499576,0.118638048034497
474,474,0.0518926539723064,0.0540532902063519,0.996979894228405,-0.00482634259383701,0.097317472172882,-0.00656685726856888,-0.317617106443909,0.465466787691944,0.0817250494543435
475,475,0.0517403863773813,0.055054425993889,0.996916568004221,0.00331710101080035,0.0949479383932777,-0.00384526383882223,-0.0902215246637071,0.480959384934079,0.297673688217145
476,476,0.051596573173446,0.0560831172020622,0.996861941763887,0.00986919558384025,0.0904244007708336,0.00030654901408217,-0.0327186572078788,0.522589467170469,0.369794947774415
477,477,0.0514486206031889,0.0571589434072748,0.996807280116028,0.014412839751272,0.0856645171596247,0.00605332390697898,-0.26384234012537,0.493740712751252,0.519058292136855
478,478,0.0512901210401152,0.0582393097549714,0.99678233295585,0.0190505252054689,0.0789833987951133,0.0124177490642405,-0.39441835362459,0.667363800171538,0.526854992480574
479,479,0.0511146460299568,0.059281582636248,0.9968168783012,0.0226105114850666,0.070772474212116,0.0186508709264256,-0.45823844726465,0.766654808367935,0.567230345390782
480,480,0.0509157500567048,0.060243067990451,0.996940713287418,0.0242452266859607,0.0633200409414309,0.0238681267719167,-0.460668619447017,0.709689588040881,0.754306610941847
481,481,0.0506721095620252,0.0610949230243145,0.997191762941915,0.0231302363184532,0.0587673403273609,0.0288617443668266,-0.415293343360806,0.646531068454722,0.801725363990702
482,482,0.0503880868549527,0.06186532935161,0.997550274895489,0.0188674910916378,0.054705392881321,0.0340571685072254,-0.371242032577964,0.605939428560599,0.673041518644885
483,483,0.0500957350280512,0.0625971728252916,0.99795963365689,0.0131009646216947,0.0530191230413149,0.0385847876077292,-0.23541476156613,0.377400040774749,0.495720409996705
484,484,0.0498270801251949,0.0633334822631707,0.99836339099588,0.00770278152973021,0.0540465497933695,0.041658031077263,-0.18420675540531,0.231845472319692,0.225850246174139
485,485,0.0496141164246418,0.0641174533024282,0.998705325411719,0.00463331744868086,0.0562171318162688,0.0422777286362011,-0.296682466982265,0.0946170471934844,-0.0823296248576217
486,486,0.049465499678681,0.0649542194565699,0.999001198851859,0.00266678848086309,0.0612003211311771,0.0400599933376742,-0.321068886344048,0.0482618495999375,-0.387777950138573
487,487,0.0493599146768091,0.0658151717106913,0.999289209785487,-0.00202352208473084,0.0672940584076896,0.0353598404243767,-0.0666134185984947,0.109762872092653,-0.348864002650593
488,488,0.0492843385786536,0.0666929207981568,0.999547100713876,-0.00598675363192938,0.0730532959839109,0.0290744384911516,-0.156489274858408,0.196387158372222,-0.391118815165821
489,489,0.0492257104419794,0.0675798897725834,0.999752758261542,-0.00862948002966334,0.0774272017083171,0.0218725577603278,-0.149149749446102,0.285195404532664,-0.515812837273371
490,490,0.0491709153426158,0.0684682787638242,0.999884243003482,-0.00989306473777778,0.0799097365061728,0.0144272440978741,-0.122905867746846,0.29322417169497,-0.573229672956424
491,491,0.0491349092407609,0.0694335108391232,0.99993571624773,-0.00790201362047331,0.0802456899064909,0.00622098707551795,-0.0882265852538094,0.215486006375726,-0.713883893782506
492,492,0.0491261930073455,0.0704802570790012,0.999923785089515,-0.00340735628235937,0.0794806154156057,-0.00321280777916804,0.102638581280229,0.191979244208747,-0.770296204982478
493,493,0.0491219778250184,0.0714946654355746,0.999859802763836,0.00242052849154748,0.0763230641119309,-0.0130920641928948,0.254215790594623,0.161639279987425,-0.729796870145445
494,494,0.0490995947733509,0.0723632855868569,0.999754300471333,0.00835997101496968,0.0703862807134428,-0.0224409807196471,0.10639592780054,0.131146814302462,-0.929084029962997
495,495,0.0490365155977394,0.0729730869698162,0.999616913862417,0.0108179718183326,0.0612358482598471,-0.0306207339758063,0.0534525727329404,0.0482040623315616,-1.08984871418511
496,496,0.0489363340120613,0.0732499734059061,0.999442609213031,0.00795473514725798,0.0474197604751224,-0.0388751485267739,0.0460976688803268,-0.0449408337017271,-1.16651844724073
497,497,0.0488140021572571,0.0732698547937996,0.999225393723225,-0.000393194352765301,0.0302190332735824,-0.047931332848163,0.185084137884042,-0.337357742469767,-1.0632771582674
498,498,0.0486641396051614,0.0731448246432028,0.99897246634667,-0.0107351223690066,0.0132707472696508,-0.0560369572516233,0.216390347043832,-0.572711234297219,-0.686693720119673
499,499,0.0484814143612137,0.0729866840100514,0.998690574215052,-0.0214292973101554,-0.00248442493125557,-0.061447387250433,0.237996088270674,-0.661557478400906,-0.349234566236957
500,500,0.0482605815783497,0.0729069496592544,0.998386018770005,-0.029843469369865,-0.015181659320643,-0.0625628739499237,0.272066180758943,-0.74222260233288,-0.0159539670842024
501,501,0.0479463254881166,0.0728540629640864,0.998013235268653,-0.0357273991541447,-0.020870496694183,-0.0579884984085118,0.347844223696538,-0.890502539135392,0.338087126800196
502,502,0.0475422491478393,0.0727535608238167,0.997567533579393,-0.0397395123141258,-0.0227255996842423,-0.0486094532167501,0.317320627955153,-0.974706548219848,0.611490883191631
503,503,0.0471315582263841,0.0726825228121828,0.997116054460938,-0.0410664747820718,-0.0223766640041243,-0.0363831216662171,0.265779079164604,-0.886410801514509,0.526404388954089
504,504,0.0467974144707144,0.0727181186396012,0.996725702003365,-0.0435456416443637,-0.0206126749101637,-0.0239230287715377,0.771295482486554,-0.847211928483658,0.900312641607065
505,505,0.0466229201561154,0.0729375741176021,0.996463137379321,-0.0438904576162852,-0.0182213969170294,-0.0133000443592115,0.733844237696676,-0.778553452459833,1.0708159226886
506,506,0.046650519616065,0.0734140842411236,0.996354384907098,-0.0411004285594406,-0.0131108427741341,-0.00381220383644158,0.686571010500372,-0.650740729741077,1.08845437012697
507,507,0.0468248846207877,0.0740962621218444,0.996354266731827,-0.0358126943565599,-0.00476955846331772,0.00602804726221723,0.520306530109678,-0.495577558533283,1.09942576040728
508,508,0.047082473610453,0.0748745263914664,0.996422079951862,-0.0283364572795721,0.00496493091206244,0.0152753373648043,0.142979558246188,-0.432880376877777,0.809349174238518
509,509,0.0473597985114702,0.0756393163304596,0.996516684128119,-0.0198078924864619,0.0134799204182635,0.0228826408639365,-0.142965636439922,-0.434685813215131,0.418468112857652
510,510,0.0475933937107513,0.0762810810525559,0.996596624281518,-0.0125859751689352,0.0179963353591922,0.0276299393926286,-0.258095286765547,-0.431532166337136,0.171823376889899
511,511,0.0478111052014862,0.0768041757229912,0.996668284311146,-0.00715897708972446,0.0165211059042677,0.0285851927867406,-0.221004822527414,-0.457684649028509,-0.0345642554871602
512,512,0.0480553342064717,0.0772817788731249,0.99675792900791,-0.00364177820704795,0.01210071066575,0.0265222469506101,-0.111219384355675,-0.522705548565818,-0.131546127281249
513,513,0.0482844112052547,0.0777074729409415,0.996853857385807,-0.00139207290941413,0.00637239373606584,0.0229738449598003,0.0549999151732476,-0.671978059417967,-0.168190298296072
514,514,0.0484566693860553,0.078074700248085,0.996944497073796,-0.000364097338690458,0.00157162929250948,0.0191021994274253,0.215392719898561,-0.825333568692386,-0.157629303695165
515,515,0.0485304761028193,0.0783768079317814,0.99701842306829,0.00101486311104159,-0.000658952582712904,0.0164773730696403,0.206371427203757,-0.951881139843954,-0.08178254259353
516,516,0.048469779988955,0.0785842368354186,0.997067525195888,0.00321603219746935,-0.00115401241857766,0.0155987011411064,0.0259288026745249,-0.933708891703044,-0.112544128844214
517,517,0.0483023167320672,0.0787012444769707,0.997099246499116,0.00482001302734911,-0.00113379943097783,0.0153534463107958,-0.0135114011122535,-0.772395052561344,-0.0448754052360345
518,518,0.0480821982172356,0.0787718764693102,0.997125698216896,0.0057914884132107,0.000188782371090803,0.0154670906097507,0.0321490919594885,-0.772978605529711,0.0756927127208195
519,519,0.0478635684036002,0.0788402185294204,0.997159057050559,0.00672224322507502,0.00239689477312462,0.0154732972351916,0.10934380822955,-0.740716010388362,0.160420700002818
520,520,0.0477005996962786,0.0789504054982658,0.997211526260544,0.00822514895507725,0.00425591013485283,0.0152590675912295,0.126417901037068,-0.58335999407221,0.205380799544353
521,521,0.0475777525405788,0.0791355953266894,0.997287926134465,0.00656652053970473,0.00742691076354501,0.0164106907119603,0.0215267773070619,-0.358012941102829,0.066662676495722
522,522,0.0474589770504607,0.0793664847652364,0.997381014019864,0.00675828308400872,0.0108277113336504,0.0170916016938852,0.128492060087585,-0.316905735040739,-0.194236816177977
523,523,0.0473676629339135,0.0795935335873624,0.997484814332064,0.00914527656997316,0.0136716644833199,0.0170835197038578,0.232884647756312,-0.281621064904509,-0.323661053372837
524,524,0.0473271449165258,0.0797671595461964,0.997593132848872,0.0146324988292923,0.0150333950608606,0.0162049837225129,0.363110689759687,-0.268920833441798,-0.335117036061976
525,525,0.0473607067920756,0.0798377208277896,0.99769947271825,0.0237848664463605,0.014268302171687,0.0144165873696258,0.325759266896541,-0.334909843848379,-0.159956597528821
526,526,0.0474925999863849,0.0798069138284631,0.997809181488885,0.0266304547561602,0.0100528843655502,0.0146645891816268,0.0706965319096548,-0.274169311639391,0.130292285777128
527,527,0.047707177043189,0.0797080769207479,0.997927620443173,0.0294806937049612,0.00317788864566795,0.0151652080201187,-0.0140966552930461,-0.388195116249631,0.216402488080434
528,528,0.0479678720484506,0.0795388716345617,0.998047636711919,0.0321498510901627,-0.0050556107559996,0.0157395809720853,-0.101917450145593,-0.478664506469443,0.171299485078895
529,529,0.0482381699196994,0.07929678379222,0.998161455091182,0.0341372039312634,-0.0131969555177043,0.0161386691169256,-0.0915300897081935,-0.560912942808103,0.0963377985152582
530,530,0.0484816147360822,0.0789791193547605,0.998260658198056,0.0356534523815691,-0.020078293740555,0.0159143782519965,-0.0665844901921651,-0.56696860864976,-0.0625876198924115
531,531,0.0487100477902216,0.0785804665519452,0.998342635338218,0.0363667581201591,-0.0261594598007403,0.0146713062352507,0.13557108953591,-0.5377355838076,-0.0494999279659358
532,532,0.048947756319748,0.0781025927019175,0.998412688753158,0.0355952752245699,-0.0326598908118078,0.012916703841307,0.244654936213602,-0.52379727452031,-0.0427118329775119
533,533,0.0491770310812053,0.0775533351933124,0.998473644799654,0.0338204024581277,-0.0385784623957085,0.0110355951815631,0.293009060120373,-0.491009578111583,-0.080539697601957
534,534,0.0493802195393423,0.0769403847813074,0.998528114908212,0.0316936115243487,-0.04457110369928,0.00951639201152151,0.224311490471258,-0.377451022056134,-0.11276923163117
535,535,0.0495397262818338,0.0762713074684607,0.998578526935084,0.0295015271234117,-0.0504942316347642,0.0088458087511242,0.0650268203292882,-0.377471416620403,-0.108191916368122
536,536,0.0496752439358426,0.0755092770634246,0.998612604175956,0.0268882331212462,-0.0559214899933452,0.00961642408110871,-0.0019684427602706,-0.437478316971504,-0.0618103247051567
537,537,0.0497986573997281,0.0746489137433187,0.998627970101952,0.0238527140404803,-0.0625403893233377,0.0114027176981608,-0.0735394176680189,-0.330374129380939,0.013205718971416
538,538,0.0498806697270556,0.0737450563873835,0.998641967518094,0.0198095838617428,-0.0706343913298394,0.0133409938823567,-0.0134232111360153,-0.254569522285579,0.0503850584663575
539,539,0.0498919279082651,0.0728526805019399,0.998672109795037,0.0156989951174458,-0.0778589735291917,0.0144153637929784,0.12212500837175,-0.305921508543088,0.13376316423492
540,540,0.0498030065801564,0.0720268558317471,0.998736065066577,0.0115649578218007,-0.0821060495078167,0.014357779472568,0.179444538311668,-0.332554197618947,0.178374714302559
541,541,0.049577358757643,0.0713195110741205,0.998853462858376,0.0054099976992741,-0.0850051701800246,0.0128811194048086,0.15165587622241,-0.176778348794427,0.0309188213238017
542,542,0.0492345412944911,0.0706941151996622,0.999012417728009,-0.0033602895006605,-0.0900080737772473,0.0104465775178458,0.227651124301706,0.0200287548539848,-0.193749223497372
543,543,0.0488292505166071,0.070073092070555,0.999183574050142,-0.0129012684329306,-0.0952835907973318,0.00766742520379626,0.218104991779794,-0.0125529780142333,-0.42845865975326
544,544,0.0484162423181906,0.0693787910342736,0.999337698991588,-0.0221966341611804,-0.0984591481499521,0.00495237408301541,0.369400328608092,-0.144597784437073,-0.456294587437432
545,545,0.0480503531861294,0.0685334945120647,0.999445697819992,-0.0294213132489852,-0.0982199062786447,0.00288235355031627,0.525153659090952,-0.288795660721063,-0.434287602599905
546,546,0.0476886638759149,0.0674504234088799,0.999508290139886,-0.0342303114410082,-0.0963742755678773,0.00201353417314761,0.529710823957021,-0.47155055932732,-0.355647137972536
547,547,0.0472947001129068,0.0661814863744583,0.99954531227402,-0.0379535136661097,-0.0954787316466252,0.00202438570287284,0.590295765234397,-0.519753108527919,-0.149101334176969
548,548,0.0469329890554931,0.0648567810030377,0.999556532687775,-0.0395164528005751,-0.0981759947071173,0.00220362558842318,0.562379487770452,-0.328387984711483,-0.1082091460891
549,549,0.0466679849395483,0.0636061547983422,0.999541831288617,-0.0396895692410453,-0.101568468130682,0.0018559028544618,0.425994683113351,-0.116737556126925,-0.0378048847345724
550,550,0.046564061725641,0.0625592120603116,0.999501275059973,-0.0371458180634684,-0.100778196242799,0.000445538183962089,0.19550784426029,-0.0480049029883204,0.138789194186826
551,551,0.0466590223116096,0.0617230450825592,0.999446487968954,-0.028433281693024,-0.0942158816709748,-0.0014471850606897,-0.242692315902131,-0.0677330922147056,0.11082669584097
552,552,0.0469098648709178,0.0610104990080989,0.999379101324058,-0.0136890917097906,-0.0860810785619817,-0.00350629342967137,-0.460964769651344,0.124771734676778,0.0215988357337193
553,553,0.0472596839438711,0.0604099458939752,0.99928390748026,0.00573904752087524,-0.0767721347637383,-0.00613818503983946,-0.857610952134982,0.116523665677111,-0.285232825705568
554,554,0.0476515517338489,0.0599102448735686,0.999144884953555,0.0245324889133664,-0.065709422239576,-0.0100578264987115,-0.823706314653034,-0.00216732844175005,-0.512488423846712
555,555,0.0480285041077974,0.0595007850410755,0.998945093187844,0.0380536735194448,-0.0548472700974246,-0.016106894190399,-0.555235794318386,-0.028028555556306,-0.864956149534634
556,556,0.0484415092773219,0.0592355375051607,0.998652118186665,0.043169843487989,-0.0444096821557369,-0.0272161766405241,-0.0633999949962829,0.0440898060174237,-1.09233709411385
557,557,0.048928160540049,0.0591221503910635,0.9982774725225,0.0423020881518252,-0.0331787525750332,-0.0430615023835345,0.312334116319811,0.0859982358415448,-1.35946358161396
558,558,0.0494115286322577,0.0590810066061129,0.997869122621193,0.0365697000079404,-0.0236258186398304,-0.0595506346133538,0.509270088726744,0.0255447043731333,-1.50189989441513
559,559,0.049814922356371,0.0590325503360628,0.997474632465158,0.0263142788074722,-0.0175091668992308,-0.0728926500504535,0.918206170280908,0.165132165473851,-1.18080010744095
560,560,0.050061919509666,0.0588971951021828,0.997141159443409,0.0207508229563774,-0.0149538740262385,-0.0783966623633644,0.182287795584623,-0.00581013386658722,-0.655092735325755
561,561,0.050061745311128,0.0586871688651587,0.996871756972768,0.0163155998714928,-0.0181436298608535,-0.0735082206143049,0.144679349930004,0.22294956768811,-0.503195325106215
562,562,0.0498655201640095,0.0584565746414669,0.996634054133583,0.00938228998913687,-0.0240016431311964,-0.0611367109060796,0.462374240165193,0.439920658646468,0.460902895005243
563,563,0.049609811047228,0.058187829416249,0.996421987638558,0.00303112775601086,-0.0298647949787486,-0.0444671763539135,0.319593485446852,0.552083083222362,1.02391607985268
564,564,0.0494310615414703,0.0578625162989948,0.996229810552459,-0.00290418335835701,-0.0342813382285126,-0.0274860568250002,0.517128520885051,0.645724525090974,1.64454106092295
565,565,0.0494655984844234,0.0574614916894406,0.996052091818726,-0.00539635525220397,-0.037184207194697,-0.0136799663121175,0.471255994714039,0.698765087440943,2.01339416548929
566,566,0.0497508094119846,0.0569364123379654,0.995882052557702,0.000568009252647712,-0.0393895256925463,-0.00248319810894767,0.198320669106971,0.804302738178433,1.78659357317263
567,567,0.05019575656445,0.0562985705640513,0.995723493979736,0.0135188378879684,-0.0405364591382097,0.0083715476739358,-0.0438151843155391,0.660448733633853,1.27107353018832
568,568,0.0507443310349331,0.0556182417062264,0.995586563189425,0.0288376202768902,-0.0391828478218671,0.017990863177618,-0.211948745677052,0.548313544593375,0.630740980744364
569,569,0.051340532588442,0.0549663648571389,0.99548075124203,0.0411330529895187,-0.0363452622927079,0.0255890709912192,-0.255965455750414,0.624351163698399,0.146017148096017
570,570,0.0519284452765117,0.0544144826266337,0.995414994059691,0.0465685885308484,-0.0329628148615918,0.0304824514770675,-0.301221681710637,0.786764700285569,-0.094423939802976
571,571,0.0525641145400921,0.0539707300252811,0.995387569780556,0.0443284141963233,-0.0282119919264802,0.0318821332387388,-0.381596202852498,0.841727448000239,0.00441732733971418
572,572,0.0532850891379192,0.0535875305515465,0.995391397880776,0.0381013219569939,-0.0216326382829608,0.0303582098775738,-0.493050620165885,0.884847012170097,-0.0184265752583104
573,573,0.0540077342168626,0.0532533641715891,0.99542711108551,0.0299995880244053,-0.0137314310323601,0.0271873606464335,-0.47947263043391,0.883846550260578,-0.0636952052384562
574,574,0.0546483605365976,0.0529568906873931,0.995495400855421,0.0217500579476853,-0.00590008543084881,0.0236382493546933,-0.425583417091385,0.998656149807324,-0.0614558947747806
575,575,0.0551232097669794,0.0526869021077406,0.995597015553648,0.0159530076752157,-0.00175468379911881,0.0207211242724367,-0.357680315344724,1.026458723656,-0.19873219192802
576,576,0.055387654737289,0.0524456358421523,0.995752954117202,0.0121736432964689,-0.001173904474758,0.0180058954653002,-0.15075649413055,1.1109581374702,-0.158175879475306
577,577,0.0554975612350867,0.0522408080892904,0.995962338537978,0.0101813381057465,-0.00297103134112075,0.0148924769611029,-0.219962112196052,1.05615332757939,-0.353348177416267
578,578,0.0555198038393774,0.0520694472385641,0.996193196127455,0.00929577597107403,-0.00635950838211322,0.011677505189891,-0.206038956181224,0.936741851649564,-0.396605680927082
579,579,0.0555212263349218,0.0519286007757255,0.996413590055545,0.00849538419073477,-0.00983043855251142,0.00899952198646306,-0.157642583260034,0.830849064119551,-0.251362882741404
580,580,0.0555686805529716,0.0518153932836557,0.996591606614878,0.00700680078694389,-0.0125180265413156,0.00742001071553922,-0.0691862732489859,0.689012672246987,-0.107928066967914
581,581,0.0556474675267135,0.0516951990099974,0.99672481524299,0.0051439483608518,-0.0142185085048079,0.00721945857733149,-0.058343356342707,0.509216097796831,0.0149740712578646
582,582,0.0557129134889857,0.0515699985012077,0.996834779042164,0.0040592017180918,-0.0157155745719332,0.00825174227568281,-0.0914914570189553,0.404370534215258,0.0426901810192231
583,583,0.0557869690226253,0.0514918862480622,0.996925600424658,0.00329171250448357,-0.0154730023228386,0.00995943141809345,-0.0220882229001803,0.306444066643108,0.0772763303526366
584,584,0.0558916203615492,0.0515129342484951,0.99700131686924,0.00211408272687947,-0.0144758858050398,0.0116398038818402,0.0658481745660667,0.29317922497968,0.136867519868399
585,585,0.0560488794432694,0.051685188973307,0.997065839334869,0.00133492005171241,-0.0104963213008765,0.012928735633435,0.0192946449798521,0.230410971331261,0.167665366161161
586,586,0.0562692892210991,0.0520462905275628,0.997116961681422,0.000415833657694919,-0.00314442527652254,0.0139510741307385,-0.070451107511846,0.174845987969869,0.125958104218073
587,587,0.0565381900872889,0.0525615305739189,0.997152573232705,-0.000863297904807975,0.00552584021934531,0.0150496139557582,-0.182596146524818,0.212776281711872,0.100555580229448
588,588,0.0568398077911032,0.0531743447633509,0.997176478339764,-0.00265552346866066,0.0144749934438148,0.0159212466114757,-0.244124653161817,0.182174057080039,0.102833276194116
589,589,0.0571583743176053,0.0538280802387669,0.997192282244904,-0.00426532555612882,0.0228462527509404,0.0164627712796694,-0.281059056961888,0.215446360179415,0.185900864041048
590,590,0.0574781304971268,0.054466007739228,0.997203376764672,-0.00519209117695441,0.0300028080395306,0.0166093053094153,-0.315702933470263,0.159686435158255,0.156596067771025
591,591,0.0578112388171837,0.0550836883310696,0.997208477109777,-0.00500100129811598,0.0358868658676333,0.0160479253670481,-0.277228461785473,0.197626474209864,0.0904911151616034
592,592,0.0581682668317414,0.0557185150084063,0.997205603021113,-0.00357565441559652,0.0409867964530808,0.0148439109009982,-0.280401942963345,0.143705507938907,-0.00539250567289661
593,593,0.0585310401837755,0.0563767048643319,0.997196612148122,-0.00148273611714941,0.0457401396854879,0.0133518039965007,-0.254949283807068,0.278476004245358,-0.104628169910403
594,594,0.058881352313596,0.0570648442200475,0.997182903666958,0.0010715620635915,0.0512995037199345,0.0118262112673877,-0.220124069246093,0.381236742666787,-0.229185731837196
595,595,0.0592009677871657,0.0577898506022501,0.997165510430123,0.00307667570268509,0.05748104151903,0.0110701444922104,-0.158624940117348,0.672293795080964,-0.0282899442726499
596,596,0.0595427951141763,0.0585592739356233,0.997123487127222,0.00394762957728397,0.0671717165384382,0.0117965005191335,-0.19471329460848,0.681309871357396,0.0181922574480716
597,597,0.0599189684748206,0.0593688551083397,0.997055632911428,-0.000918176766878833,0.0780714452457573,0.0133316139292956,-0.188328599164659,0.673676085561814,-0.0748006800125088
598,598,0.0602500685361758,0.0602078747429313,0.996992648492817,-0.00559062568265078,0.0891260827305741,0.0146546929080565,-0.286180112688654,0.703945977542246,0.261636463360541
599,599,0.060456676356583,0.061065577832491,0.996965261835208,0.00359448529468708,0.0983013657353765,0.0139317980308194,0.0256431008237902,0.636687001810858,0.16807672490436
600,600,0.060459374090412,0.061931193858678,0.997004218811564,0.00851163332208066,0.104119083788285,0.0138844287949426,-0.101862157605582,0.593703212888293,0.232682542507582
601,601,0.0601686275299429,0.0628189264202894,0.997127659412362,0.0103281660711541,0.106577338183695,0.0147364494645177,-0.350041540064826,0.548974207537684,0.102803313467003
602,602,0.0596373423668365,0.0637360153670912,0.997315609093787,0.0096672308096219,0.107305343365871,0.0161495149611676,-0.367769947808626,0.490935578876102,-0.0398758876804017
603,603,0.0589997990963833,0.06466111227408,0.997541750683193,0.00654225308576293,0.106793856574906,0.0176575315361234,-0.308019000610262,0.316691338644243,0.0172992363233797
604,604,0.0583903331968046,0.0655727792404716,0.997779563417094,0.0012990485031514,0.102633414441693,0.0189887095246193,-0.144937803447969,0.408874178189534,0.223710272347892
605,605,0.0579433368363004,0.0664494856371916,0.998002261685317,-0.00465568891091202,0.0996042894288229,0.0201173378570742,-0.224516398867388,0.524107803648994,0.422184587708941
606,606,0.0576928801065015,0.0672702797580949,0.998225371713602,-0.00645586339098482,0.100216948501502,0.021743834808831,-0.327944371429721,0.457548937099397,0.0997925946093398
607,607,0.0575494860280762,0.0680491160280527,0.998467122065564,-0.00806920471965798,0.101798356482261,0.0240503477008274,-0.480000410166137,0.315440530225524,-0.0825009886491441
608,608,0.057462190446056,0.0688168849364388,0.998704660576418,-0.009105915548944,0.101886415810214,0.025856414555561,-0.600560239391065,0.231239816156307,-0.334995871654445
609,609,0.0573799437751884,0.0696046806959466,0.998915249989528,-0.0118796296027935,0.0989676409424901,0.0259617904093947,-0.607969245592503,0.271902189245066,-0.422218604702551
610,610,0.0572515989750372,0.0704438117615322,0.999076288298866,-0.0181177307786534,0.0943197881315755,0.0233941692746894,-0.503934669736661,0.374020233748419,-0.252753005720399
611,611,0.0570889889509626,0.0713536740270029,0.999204546269294,-0.0214887112599714,0.0915511508749806,0.0168399254242713,-0.20564169410055,0.321481124280749,-0.466300749977138
612,612,0.0569259736958013,0.072313417985733,0.999316165584747,-0.0245643654148355,0.0879880014947925,0.00728861957601068,-0.0574953523021183,0.357247282015897,-0.636242082034511
613,613,0.0567443983458146,0.0732942244019972,0.999387513851976,-0.026737539681714,0.0858504496618449,-0.00376368689553096,0.0546889212427478,0.242783974158335,-0.821755040005896
614,614,0.0565261946137353,0.074267389116182,0.999394644321926,-0.028085257567766,0.0846210178224844,-0.0148911482790941,-0.14207456061954,0.160276960719218,-1.21566573359934
615,615,0.0562534069615338,0.0752043336476943,0.999313257212231,-0.0301722392134841,0.0841147680300841,-0.0250758147442404,0.0365199147712295,-0.0645980554648288,-1.42477261938316
616,616,0.0559294225123174,0.0761321866881379,0.999114800120615,-0.0346728759362391,0.0834424262976622,-0.0358198200186397,0.287886165601962,-0.168264416119884,-1.34708558666188
617,617,0.0555661163480185,0.0770704843777829,0.998816020555375,-0.0385571805456828,0.0820642776066118,-0.047887297444834,0.239924439173716,-0.209877082039725,-1.37241593002521
618,618,0.055158392823667,0.0779791624509716,0.998460124615834,-0.04339440030439,0.0805721404941146,-0.0593053082192609,0.391989007102427,-0.189415713117713,-1.17648284142458
619,619,0.0547011899053554,0.0788178783358106,0.998090097132299,-0.0463477446842458,0.0796642377387508,-0.067880244437036,0.240999303657892,-0.0714141498990526,-0.857943300131261
620,620,0.0541894744724625,0.0795459964521155,0.997748702287878,-0.0475102700416702,0.0770015636930391,-0.071612230784504,0.139546442230647,-0.0472601837450076,-0.471491989221435
621,621,0.0535371634238728,0.0801391404692754,0.997415241027339,-0.0466050803149654,0.0703683873316723,-0.0689296507066358,-0.0572562721091723,-0.110454451857693,-0.0163884599176661
622,622,0.0527475839508323,0.0806243000428122,0.997061535997337,-0.0459098638763056,0.0604114845914275,-0.061388923757622,0.0195171956187278,-0.141663212005062,0.383350292112267
623,623,0.0519498707519776,0.0810375313165554,0.996718532687099,-0.0452007489957532,0.0492684236028639,-0.0507357129849028,-0.0389261338737371,-0.227395590771029,0.704018953045032
624,624,0.0512732018561315,0.0814146898518186,0.996416559707867,-0.0434776463444731,0.0406941817690079,-0.0388576158625348,-0.205519797834154,-0.483287948344891,0.921268182803004
625,625,0.0508468292012325,0.0817914477635854,0.996185371664061,-0.0419791677151117,0.0353823614190892,-0.0276466657349643,-0.088242461606468,-0.619329445373841,1.03429161620772
626,626,0.0507201503360519,0.0821275972133381,0.996022668977896,-0.0402887665180942,0.033356316548239,-0.0157153061403438,0.0393887539678933,-0.67273952101737,1.22974599402833
627,627,0.0508071670584894,0.0823984985664677,0.995907713240014,-0.0368804995056832,0.0327078107848717,-0.00169174809574476,0.0558409729236288,-0.736079646403739,1.11982643523752
628,628,0.0510341722610546,0.0826636233040398,0.995842154733737,-0.0345568465357995,0.0328649051198069,0.0125029008566535,0.333260560486452,-0.798386731842734,1.16495674825287
629,629,0.0513274649785344,0.0829831161732764,0.995827510589106,-0.0326722943832038,0.0332604879168654,0.0250865294291172,0.343441881202277,-0.8663554439802,1.13279108957843
630,630,0.0516133119437194,0.0834176856235169,0.995865162824825,-0.0314075243064792,0.0324370527027698,0.0343025732901108,0.208577635872621,-0.637464601667234,0.948949640896704
631,631,0.0519162830888138,0.0840267659577005,0.995982639188745,-0.0332296438463561,0.032849927974106,0.0398586141928906,0.19730398598127,-0.501943653303077,0.871294655919824
632,632,0.0522857376151865,0.0847705495299243,0.996178212116376,-0.0363289915967071,0.0353397779130518,0.0431544256217446,0.0623392342074918,-0.389045988919535,0.483148572360165
633,633,0.052685079064773,0.0855611254720624,0.996409121063454,-0.0391025777226297,0.038277341527473,0.0445076143933606,-0.0126783925765079,-0.354448696934354,0.179810688265001
634,634,0.0530776658960553,0.0863104731470113,0.996632435729147,-0.039775618757385,0.0401054355309573,0.0440440902064196,0.0782591687280366,-0.430076738862432,-0.0446154889077608
635,635,0.0534268082030759,0.0869304849315208,0.996805117129326,-0.036620096759348,0.0398579022301817,0.0420600415404282,0.15691377138566,-0.609720137538242,-0.161629659152596
636,636,0.0537326783664728,0.0874134252554923,0.996925452512603,-0.0284870657687194,0.0357486565949306,0.0376406696846088,0.151805239497907,-0.730075355578832,-0.31015678145593
637,637,0.0540196027817677,0.0878180335150426,0.997021365089549,-0.0163739913236319,0.0288369055703648,0.0306580396137062,0.0282465684007692,-0.842192726859465,-0.423542738641145
638,638,0.0542871142608849,0.0881557344959165,0.997094287037472,-0.00200657840016552,0.0206482710008242,0.0228379121480362,-0.105725127078702,-0.833821368184337,-0.527730646330509
639,639,0.0545348162557574,0.0884378705929344,0.997145738058647,0.0125480405597739,0.0135248868701387,0.0156399750836627,-0.208608099669615,-0.824901293267449,-0.526391821299429
640,640,0.05476241140858,0.0886758109582802,0.997177331555305,0.0251811611332588,0.00918634620645479,0.0104804974031007,-0.206080946511735,-0.777986001811637,-0.424641057431772
641,641,0.0549633397858638,0.0888680098776103,0.997178269697284,0.0359934922277553,0.00752504105500099,0.00773897740102632,-0.188491194595025,-0.723164253418185,-0.239738415240142
642,642,0.0551376985534313,0.0890066694724429,0.99714758383858,0.0459756495757855,0.00759532414663885,0.00634301525348028,-0.16661439176374,-0.694772086991796,-0.046400770902882
643,643,0.0552952623222431,0.0890939354765282,0.997101781749153,0.0548233100899701,0.00886122227506072,0.00578319134666378,-0.100927053758622,-0.656136702009423,0.0589153581945832
644,644,0.0554458309166562,0.089132065401553,0.997057441327197,0.0617386676793527,0.0104660051642295,0.00558159626961155,0.00351590083453342,-0.555247887045179,0.149474021695542
645,645,0.0555992410446612,0.0891234423755983,0.997031178266019,0.0664316093163514,0.0109776580749916,0.00517966109675007,0.0476601092511577,-0.513587517657422,0.152654821726862
646,646,0.0557664738342946,0.0890499713730018,0.997024797906081,0.0633463399612359,0.00928881762254788,0.00596728139960864,0.130414433357099,-0.40214969186018,0.0769923599247165
647,647,0.0559409225654864,0.0889106682677519,0.997028223680248,0.0590543973057836,0.00550755943025019,0.00655371380104815,0.0993785838506489,-0.381123356923045,-0.181428180432851
648,648,0.0561060911666542,0.0887334831850422,0.997040104652818,0.0545728954899634,0.00157077627381517,0.00648829208213882,0.123413117776665,-0.396570793155737,-0.302760520763879
649,649,0.0562454991056124,0.0885460098211741,0.997058794631521,0.0525659156113125,-0.00196688015494611,0.00565219648939787,0.131950136973467,-0.442582534441336,-0.341951806273704
650,650,0.0563426833627561,0.0883754274704444,0.997082280003649,0.0541213296375292,-0.00476290707417992,0.00396332910132333,0.187949613922916,-0.417388559361982,-0.200354176809505
651,651,0.0563907859893471,0.0882386606571331,0.997116386790411,0.0493712207496735,-0.00618051599443707,0.00373604976203424,0.121112141828055,-0.262549738682875,-0.011900183798306
652,652,0.0564008022210551,0.0881175368789528,0.997163225203046,0.0433421066785494,-0.00557528256923096,0.00337650311721253,0.225677084881147,-0.293892254181734,0.0352411483931406
653,653,0.0563830793661111,0.0879862066127571,0.99721452815145,0.0364136810478425,-0.00389982207848202,0.00303478771394943,0.367286527990114,-0.373313355265368,0.062087540731739
654,654,0.0563479830273291,0.087818732313338,0.997261482082165,0.0291603824391268,-0.00374017483293213,0.00280054258148793,0.448661089094272,-0.295767845729909,-0.0310926817708515
655,655,0.0563058971559098,0.087589102995088,0.997294732406568,0.0230934981808194,-0.0057707859103303,0.00277702344916626,0.402884299426399,-0.335327120375656,-0.0950817899261708
656,656,0.0562506142315703,0.0873093247075506,0.997289290100186,0.0183495816958679,-0.0109996533918569,0.00279474666061384,0.254354165924785,-0.327962436708707,-0.141725893597856
657,657,0.0561752726044087,0.0869964570573505,0.997250937284061,0.0144011033791943,-0.0181128554428047,0.0028100611911946,0.152351541375499,-0.277631018707009,-0.0726905516028029
658,658,0.0560893442184781,0.0866321523652607,0.997216011116613,0.0096326011505054,-0.0254297536805878,0.00331069068454591,0.154879749761563,-0.339797705164833,0.16602559900317
659,659,0.056002366060481,0.0861982072396666,0.997220721988601,0.00571357497717159,-0.031467244490225,0.00490092757307641,-0.0229846329473992,-0.351698346750549,0.231403070145433
660,660,0.055923935547517,0.0856765282173555,0.997301172641322,0.00300504151328695,-0.0375154311551322,0.00710870863790931,-0.219558134711046,-0.367526735501343,0.209959615246229
661,661,0.05586005784313,0.0849973745343534,0.997487458124295,0.00174505664922773,-0.0462649727119171,0.0106138086295987,-0.0113403067954721,-0.279611421344174,0.272469145214644
662,662,0.0558046153187583,0.0841728633256386,0.997754918752828,0.000642207682219332,-0.0540905552169084,0.0154587366540081,0.128580505539358,-0.224806165388286,0.500133205397417
663,663,0.0557490123070135,0.0833077687397742,0.998057512817512,-0.00101478368845844,-0.061485636804188,0.0205723853620962,0.0090554830573394,-0.147041722363825,0.444286951252584
664,664,0.0556845495961239,0.0825068850483996,0.998349203978742,-0.00419247301536584,-0.0699234625012386,0.0246814250152185,0.00442119754130345,-0.0730308534821627,0.283189269092087
665,665,0.0556023777118907,0.0818750265377879,0.998583986322126,-0.0074013124387663,-0.0784115278012696,0.0267644717925794,0.0233649957170918,-0.0990062875435993,0.208728154217984
666,666,0.0555092389771054,0.0814977842937739,0.998760995474461,-0.00911169677332902,-0.0850024777178588,0.0257802359802215,-0.0506700049569856,0.00351583247985993,0.00864466495187683
