,Frame,CoM pos x,CoM pos y,CoM pos z,CoM vel x,CoM vel y,CoM vel z,CoM acc x,CoM acc y,CoM acc z
0,0,0.092348603271122,0.126211324075987,0.95558623454624,0.00775816337543495,-0.00150194631217437,-0.0145145898791775,-0.0219979839061773,0.0317753148379586,0.0138008310363389
1,1,0.0924825202476991,0.125796248671953,0.955445957927866,0.00680724144216448,-0.00253805151299331,-0.014585850181238,0.00796298997520946,0.0343684913185786,0.012356148766325
2,2,0.0926197587169487,0.125374060493238,0.955302735026263,0.00611749549386052,-0.00324510537286294,-0.0146837421487945,-0.0688589073637117,0.000643017122597813,-0.0138621313980086
3,3,0.0927550857931874,0.124955385018135,0.955161165252164,0.00536055820831536,-0.00377993518651551,-0.014757707567306,-0.0309720753417767,-0.0264318724953918,0.00423967478784043
4,4,0.0928832950827239,0.124550853076917,0.955025828322284,0.00463039869638653,-0.00434221860410476,-0.0148197745651277,-0.0331461950310808,-0.0220691581265345,-0.0220325086315072
5,5,0.0929992045309168,0.124171100624459,0.954901285951286,0.00405329762158812,-0.00485356578620916,-0.0148576760613803,-0.0463152471092127,-0.00309788314402997,-0.00737068769696912
6,6,0.0931006607962485,0.12382070432525,0.954788839511334,0.00342291302051924,-0.0047410555624219,-0.014884289073757,-0.0239778469611319,-0.0204500880411059,-0.000956331606172384
7,7,0.0931911710828892,0.123492584422954,0.954685409983563,0.00244889422260736,-0.00437259863406075,-0.0148643537294907,-0.014644828842395,-0.0353163543858905,-0.00298897184056457
8,8,0.0932740487659078,0.123179892390549,0.954588984612603,0.00196350286568078,-0.00405612046870592,-0.0148757978503926,-0.0465827238997185,-0.00236486467940113,-0.00078404683617053
9,9,0.0933525945537768,0.122875775956455,0.954497559205774,0.00131736665553888,-0.00354980995537412,-0.014799631118152,-0.0607445973296797,-0.0243249579678296,-0.0204835382353123
10,10,0.0934300983118187,0.122573379535598,0.954409136757769,0.00101084563566545,-0.00318129295371387,-0.0147154475899256,-0.0586715445524354,-0.042020695854945,-0.0124339728104054
11,11,0.0935063433368145,0.122272557488603,0.954324195994049,0.0006839823812906,-0.00282498372354624,-0.0145552292683061,0.00291344222910473,-0.0168671992605621,-0.015522974938369
12,12,0.0935791501333328,0.121977880336434,0.954244058042692,0.000620415171945023,-0.00258604419450811,-0.0143191478368522,-0.0174095690739282,-0.0306149894766245,-0.00346279492684462
13,13,0.093648853914991,0.121689564526975,0.954167995934741,0.000592053916834254,-0.00262260856237777,-0.0140777040605055,-0.0131393607516066,0.00710876429797917,0.0194553335131742
14,14,0.0937157863057822,0.121407826819179,0.954095284544775,0.000581197426742354,-0.00244590629622227,-0.0138677456262271,-0.00944257355539456,-0.0509068341658665,0.012366131289398
15,15,0.0937802756237281,0.121132884267166,0.954025200406012,0.000861652367128956,-0.0028440942552428,-0.0137648175999211,-0.0592911359933119,0.0257108072809339,0.0256925651382163
16,16,0.0938446790920194,0.120864442048614,0.953958135291643,0.000770751194989881,-0.00285523922713731,-0.0137983094606462,-0.0315224227017952,-0.0389927882709589,0.0227461143502234
17,17,0.0939087811096215,0.120602356716118,0.953894566945903,0.000790008471948081,-0.00311325735166708,-0.0139199458988501,-0.0514266313022975,-0.0451820637539834,0.00261759305079766
18,18,0.0939690494244151,0.120347072705336,0.953833902437215,0.000888890090681325,-0.00337996119905162,-0.0140913387736795,-0.0547270695041545,-0.0350633296966372,-0.0132259320792331
19,19,0.0940219529619696,0.120099034496664,0.953775549343503,0.000870385304121351,-0.00339881482163335,-0.0142320895170753,-0.0394340462509307,-0.0557711412666619,-0.0656240252874596
20,20,0.0940639616620738,0.119858686470602,0.953718915680261,0.000540479322842122,-0.00352647275666712,-0.0142889090191242,-0.0122063735411788,-0.0355817655931347,-0.0517199434868517
21,21,0.0940934301504123,0.119627703568109,0.953664025235254,-0.000214472798686447,-0.00345551874271938,-0.0142704118109615,0.0074004015979966,-0.00984408171767385,-0.0039188844512443
22,22,0.0941127179363719,0.119405790427021,0.953611269755198,-0.000880099970986777,-0.00305385896338734,-0.0142231214675024,-0.0243021757306169,-0.0121227190440052,-0.0432654752869858
23,23,0.0941243025073577,0.119190436160459,0.953560609707002,-0.00191665061418946,-0.00259851021603906,-0.0141265395300347,-0.0263862217965415,0.00104399576111068,0.0102918310833739
24,24,0.0941306607736204,0.11897913042261,0.953512005870916,-0.00234275806640044,-0.00257508108386162,-0.0139861865822099,-0.0790667829684248,0.0412226995470272,-0.0201424901607226
25,25,0.0941342691173721,0.118769363430378,0.95346541933482,-0.00307002579534864,-0.00212260126626369,-0.0137681846808455,-0.0203388579722083,-0.00333018937131692,0.00868178262109792
26,26,0.0941338910545457,0.118558342213346,0.953420993996207,-0.00350826095516251,-0.00237243125787923,-0.0134527199671581,-0.0585938480475233,0.0573455935284504,0.00989777385339714
27,27,0.0941278791429264,0.118347741858401,0.953378754275895,-0.00401610546349878,-0.00253001965203908,-0.0130229238674483,-0.0364613409806168,0.0330001879453421,0.0320681023327612
28,28,0.0941180934070352,0.118141754687393,0.953338481892564,-0.00431478567616332,-0.00268317667476086,-0.012569406357477,-0.0416233797484034,0.0205615425958594,0.0375557051418803
29,29,0.0941063944327224,0.117944572548953,0.953299958073414,-0.00472735754399076,-0.00289621114913358,-0.0121435676110232,-0.0420673480335255,0.0228565314873818,0.0068200379208376
30,30,0.0940946432705916,0.117760386879255,0.953262963604834,-0.00486655961390975,-0.00283436926025499,-0.0118461590241831,-0.0773079783340536,0.042139029177654,-0.00157895712084254
31,31,0.0940849612398902,0.117593064734083,0.953227754583886,-0.00506403150865457,-0.00279964598034635,-0.011662518757594,-0.0684447350582388,0.0671832585546197,-0.0243682336218205
32,32,0.0940761121008831,0.117439812279903,0.953194474496792,-0.00523250153787652,-0.00193688692784646,-0.011583565585923,-0.0667667572831401,0.00889105920315729,-0.025351517428329
33,33,0.0940649198747939,0.117294829309852,0.953162735590196,-0.0054258266410419,-0.00141756437507049,-0.0115752259284295,-0.0531670405054064,0.0512483315235678,0.0179820335508161
34,34,0.0940482075504014,0.117152315518863,0.95313215086055,-0.00562210947974724,-0.000710675669543313,-0.011569490320797,-0.0557513610343584,0.00897950168745878,-0.0106075585496639
35,35,0.0940227972841707,0.117006470533046,0.953102333954658,-0.00590272462266838,-0.000323092663386873,-0.0115461066811706,-0.0769345119786976,0.022124817650595,-0.00501828005931656
36,36,0.0939890816646423,0.116857350306815,0.95307324040817,-0.00637743981234341,-0.000474762006734156,-0.0115189887828339,-0.047264435148613,0.0387877779977337,-0.00820118465554831
37,37,0.0939491807441019,0.116708821879969,0.953045127403205,-0.00684174998376558,-0.00100507692282165,-0.0115172760957539,-0.0536722621578379,0.0292569336759104,-0.0263640177138732
38,38,0.093902506739736,0.116560801625062,0.953018061547415,-0.00723650286641648,-0.0015218765951404,-0.0114982055958283,-0.0986909869133822,0.0379329028966712,-0.0511590980571875
39,39,0.0938484711345542,0.11641320613992,0.95299210947242,-0.00798817939674398,-0.00192173662678963,-0.0114480786491509,-0.00622012453280002,0.0212059800338808,0.00505002354132966
40,40,0.0937864846851116,0.116265952319542,0.952967337827923,-0.00871500552027932,-0.00203496519037194,-0.0113255039750271,-0.0350423666886219,0.0471077492579023,-0.0130839037546422
41,41,0.0937157136396871,0.116116935764573,0.952943628115806,-0.00910591649344421,-0.00189165111626416,-0.0111156364981729,-0.0399497205772142,0.0545622586041192,-0.00223090283275883
42,42,0.0936365497653956,0.115966213063625,0.952920935647879,-0.00959425601124521,-0.00165925308526721,-0.0107938691303697,-0.0745973366552125,0.050047598658083,0.00441404325476658
43,43,0.0935502425575102,0.115816942612813,0.952899437677323,-0.0102400935808445,-0.0012867116095621,-0.010462399548641,-0.0467301654310166,0.035886330088766,0.0180028419109897
44,44,0.0934580428953858,0.115672282358351,0.952879311337083,-0.0106851405203385,-0.000838899840394985,-0.0101700482935052,-0.0897935474205287,0.0379218862491406,-0.00659015679777646
45,45,0.0933612029785626,0.115535389585935,0.952860733699184,-0.0112491762487153,-0.000787368961707621,-0.010003014089362,-0.077189922951056,0.0368194927003748,0.00565644936811324
46,46,0.0932616761714595,0.115408755965746,0.95284390537814,-0.0118604358618934,-0.000679411113532831,-0.0100168322882962,-0.0786048516252625,0.021971644258094,-0.0114822620555815
47,47,0.0931586298290418,0.115290276017797,0.952828708026606,-0.0121641808890062,-0.00100928840311748,-0.0101749236394426,-0.107368236552142,0.0468503611710638,-0.0578717743293704
48,48,0.0930491380094054,0.115176211011612,0.952814840201055,-0.0127700308915887,-0.00143144563347089,-0.0103887330925848,-0.0672174956652835,0.0227064885438636,-0.0475614416016461
49,49,0.092930274817366,0.115062822835615,0.952802000341085,-0.0135595148291614,-0.00188817730204091,-0.0105171420711905,-0.0484792663393363,0.0336066583648016,-0.0185069715687556
50,50,0.092799114573619,0.114946374244399,0.952789886716961,-0.0143874477698351,-0.00197945260620298,-0.0104816439064497,-0.0493286037982266,0.0328140037105365,-0.0347669557568212
51,51,0.0926559974495663,0.114831425077111,0.952778612647113,-0.0152291958932674,-0.00176476397117865,-0.0102215262354443,-0.0478569601752845,0.0120473827483296,-0.0324915682879966
52,52,0.0925028767162767,0.114720466890174,0.95276837881692,-0.016274890228526,-0.00124969545741964,-0.00980064369122223,-0.0465264715022601,0.0358939605673089,-0.0174744413492202
53,53,0.0923392463511443,0.114606662214517,0.952759014437024,-0.0173325591917051,-0.00115694447549874,-0.00931486086634581,-0.0564659919266752,0.0877601864620931,0.0169902375990935
54,54,0.0921645999332224,0.114483175794202,0.952750348772836,-0.0184554616864416,-0.00113879659603465,-0.00883111630151701,-0.0955458826115066,0.0977472090461193,0.0474344072367571
55,55,0.0919784302425498,0.114343174738013,0.952742211057373,-0.0193360007016239,-0.00202913675822121,-0.00844901736424586,-0.122222869340216,0.126875407113035,0.0605146657501156
56,56,0.0917790133976363,0.114183630688945,0.952734563899957,-0.020824730383264,-0.0031288335613728,-0.00812805510708031,-0.0742477592736872,0.148516230517092,0.067376499673397
57,57,0.091566687500225,0.11400910685498,0.95272752035594,-0.0224312383703417,-0.00515090907582898,-0.00780158982937692,-0.117426127701758,0.172081298814624,0.00328743078798914
58,58,0.091344038040931,0.113824157586948,0.952721135342834,-0.0235912254246183,-0.00731571008708655,-0.00754675816620312,-0.0947408817458781,0.156657573817849,-0.0167086675295772
59,59,0.091113652133957,0.11363333480803,0.952715464017983,-0.0250384130029502,-0.00946800431219471,-0.00730890227705275,-0.0594822878370907,0.135090907916057,-0.0124633942461277
60,60,0.0908781186991349,0.113441187784388,0.952710561871503,-0.0260073937975194,-0.0111572578226627,-0.00710966832216546,-0.0618726809072206,0.113444920548494,-0.028274755149957
61,61,0.0906349824846783,0.113235197751855,0.952706316827809,-0.0267102695609385,-0.0126534382595317,-0.00692642463407557,-0.0759121307890256,0.072355552116384,-0.00967274418928572
62,62,0.0903825172785675,0.113012335593298,0.952702689916423,-0.027260632494465,-0.0142236897985411,-0.00676930386639069,-0.0864432234699979,0.0934714571591912,0.00105007625311691
63,63,0.0901244108527998,0.11279138089911,0.95269984899026,-0.027454467862639,-0.0153713954093661,-0.00665248285998392,-0.052899359024775,-0.0146448641047761,-0.0231131442894223
64,64,0.0898643568549174,0.112591110158228,0.952697965401253,-0.0275526637075949,-0.0161599699024444,-0.00657293730970138,-0.095467646916695,-0.00169790278675594,0.0239788917703978
65,65,0.0896060551994105,0.112430295992705,0.952697213543303,-0.0276880058470675,-0.0160029964918934,-0.00653281826912586,-0.12357407260365,-0.0271039218095376,-0.00868220861920206
66,66,0.0893531365816458,0.112309381539177,0.952699279175004,-0.0277282630507686,-0.0149252693738234,-0.00663934293311714,-0.105333268094625,-0.0123724234788054,-0.0236828274691648
67,67,0.0891031467380663,0.112215844373631,0.952704051528228,-0.0276842165819524,-0.012959682549267,-0.00686124820459318,-0.0880779793104415,-0.030790525057666,-0.0354973507981272
68,68,0.0888506676049566,0.11214900564106,0.952709010616167,-0.0277699119319774,-0.0106136463486686,-0.00711038306903131,-0.0609409487393234,-0.0393151192838117,-0.0106585218162108
69,69,0.0885902884979973,0.112108186998626,0.952711634570966,-0.0276392759081443,-0.00795700088327126,-0.0072562831554054,-0.0837447454537671,0.000734396532427136,-0.0286106058090442
70,70,0.0883166076466717,0.112092710105123,0.952709399684492,-0.0278655048929,-0.00528968991570495,-0.00718486389912659,-0.0578266870282279,-0.0059425594248913,-0.026779201256817
71,71,0.0880219580801242,0.11211363977045,0.952706661419578,-0.0280638444984032,-0.00320260265511509,-0.00686426523716022,-0.125301931208376,0.0615026082761294,0.00191015345266445
72,72,0.0877099803165401,0.112171412994774,0.952705099652042,-0.0292286725475323,-0.000535200671911391,-0.00629741915413496,-0.0599078783542256,0.0902364019886203,0.055560421251213
73,73,0.0873922410047464,0.112249411121759,0.952698177332471,-0.029940311098868,0.00159040109431065,-0.00565160476880451,-0.119007648121629,0.165659900173227,0.0847888232282932
74,74,0.087080306513243,0.112331019133025,0.95267935947508,-0.0309274999497031,0.00356841092416451,-0.00500589257387533,-0.0869809515095931,0.118594609288562,0.0697362678271232
75,75,0.0867857416230333,0.11239962657281,0.952642114048114,-0.0312876751312684,0.00458977692251297,-0.00450355868606998,-0.116064694466785,0.178085679555838,0.0382079362988321
76,76,0.0865086654444353,0.112455584837866,0.952573700546781,-0.0312228274512033,0.00462572709060409,-0.0041632966434126,-0.0590120096613448,0.157973029674914,0.00775545277093408
77,77,0.0862414215372013,0.112509960072605,0.952478475466942,-0.0308210907554962,0.00396156806082458,-0.00392626933143714,-0.0649041552732757,0.149396904544817,-0.00812209150428836
78,78,0.0859838941285893,0.112562211765399,0.952375558084352,-0.0302575368340882,0.0024625434281094,-0.00375691503156239,-0.054142651603566,0.211464594543822,0.0432329746254473
79,79,0.0857359467056276,0.112611790688513,0.952284071211564,-0.0294355574629169,0.00123589214315195,-0.00358945802137451,-0.0510757188970182,0.226660467618925,0.0395770132514941
80,80,0.0854974196311447,0.112658138075805,0.9522231406994,-0.0286553151301481,0.000116266041498219,-0.0033514540580335,-0.0705230302394099,0.231372933825563,0.0392200935284542
81,81,0.0852673630808247,0.112697830607064,0.952198581217821,-0.0272338235244485,-0.000865913632304389,-0.00307790311379293,-0.10408604170374,0.228004520492917,0.0341714654749028
82,82,0.0850458708535721,0.112731202411195,0.952197656215871,-0.0261118173828757,-0.00178528965123066,-0.00274536648558296,-0.0777097874566034,0.201968259600025,0.0185403885664747
83,83,0.0848343361833243,0.112763324681084,0.952211664332997,-0.024609643785927,-0.00263560152471792,-0.0024124013644583,-0.0861484273415005,0.199298285381197,0.041848357651839
84,84,0.0846341629400779,0.112799270938935,0.952231900972524,-0.0230061728535591,-0.00317774354666148,-0.0021336188262671,-0.0706859364621089,0.156305395708216,0.0235430737995817
85,85,0.0844467675556403,0.112844117355154,0.95224965815256,-0.0217396045431295,-0.00383214261842678,-0.00193898720743158,-0.0421366561144651,0.138654708497215,0.0491401815237122
86,86,0.0842776544270178,0.112898697172672,0.952266444578934,-0.0201558341092582,-0.00436350285772975,-0.00183586661191087,-0.046763280898431,0.1299226034628,0.015795684391659
87,87,0.0841258860918811,0.112959580891933,0.95228807070525,-0.0185261571008163,-0.00465973864190723,-0.00181274306185696,-0.0131343405317333,0.0952407014267041,0.0253925734547625
88,88,0.0839832268202814,0.113025459694146,0.952312277921257,-0.0166822752271502,-0.00498029366620339,-0.00183505658886926,-0.0602183721513239,0.117677817398022,-0.0250775949710853
89,89,0.0838414418781039,0.113095034986316,0.952336807119078,-0.0156585975489073,-0.00545703262621328,-0.00188684663664959,0.0290713611226743,0.074859803508663,0.0145349163193629
90,90,0.0836922979882414,0.113167019209601,0.952359398935624,-0.0145776230526399,-0.00600158482727874,-0.00196176216905572,-0.0221251621305758,0.076291745536706,0.00551129782665173
91,91,0.0835355297858761,0.11324569789755,0.952380761952172,-0.0142268632628017,-0.00669433344993819,-0.00206441754084154,0.00598059277210008,0.0535400333634708,-0.0020256282757465
92,92,0.0833766371478127,0.113331900034784,0.952402405899927,-0.0142602782514226,-0.00748401236948139,-0.0022145797290607,0.0231010158561771,0.0685633073481437,-0.0274803501000019
93,93,0.0832160333614655,0.113419171727428,0.952423273274639,-0.0146036231175928,-0.00828377417119519,-0.00236073738583449,0.0255801959156155,0.0346390264697133,-0.0306605249484776
94,94,0.0830541281894909,0.113501072647762,0.952442306825214,-0.0154212416661243,-0.00934565295307572,-0.00250254381493353,0.0849915661791187,0.0334285180861799,0.00422473043340651
95,95,0.0828913281678989,0.113571176400078,0.952458449507192,-0.0157147943980158,-0.0102473427929563,-0.00257224445278935,0.0533258796570547,0.0311098609133992,-0.0127592310802263
96,96,0.0827248263865961,0.113627158810496,0.952471058771902,-0.0159144651928855,-0.0113642726708327,-0.00258975220729175,0.0729398994988725,0.00762638904850839,0.0136159319847945
97,97,0.0825543608047812,0.113673319344247,0.952480844818248,-0.0159158975252772,-0.0125735390309192,-0.00255963511074983,0.0518624931404487,0.00847507327776387,-0.00629011380692504
98,98,0.0823841451057389,0.113713163252501,0.952488778199657,-0.0157447856359323,-0.0137091263152227,-0.0025017954590138,0.0708465220990593,-0.0103760331329836,-0.00465121108035195
99,99,0.082218381564639,0.11375017620907,0.952495827259694,-0.015489019526363,-0.0151621649002852,-0.00241150382390141,0.0594924792455277,0.0107242035785665,-0.0151965052799746
100,100,0.0820612604115952,0.113787824425175,0.952502958072009,-0.0151938933461387,-0.0163471211393583,-0.00229721756649143,0.0592678701461409,-0.00449993720370329,-0.00932247904084643
101,101,0.0819086536114779,0.113826887362224,0.95250976435822,-0.0145621597848081,-0.0175257006973302,-0.00215586941462589,0.0448863848394024,0.00308758162102547,-0.0275667576387732
102,102,0.0817577457359048,0.113865019278183,0.95251560326535,-0.013884968900478,-0.0185151013280512,-0.00197480538099202,0.0521637267792132,-0.0065049200802332,0.0236082662706819
103,103,0.0816146887615758,0.113900985736444,0.952521081998065,-0.0131930462833829,-0.0194436946358063,-0.00175988155161678,0.0645900027309563,-0.0129767812382105,0.00134804786035794
104,104,0.0814856376297718,0.113933554460736,0.952526804626186,-0.0123420568852161,-0.0201802890484153,-0.00152941022877091,0.0862105672404878,-0.049170706910223,0.0293972993989549
105,105,0.0813767503089682,0.11396149568189,0.95253337197813,-0.0114825745731134,-0.0206876487581381,-0.00125646394325937,0.070108037758933,-0.0347845201718751,0.0494599199347632
106,106,0.0812930328911788,0.113984395042476,0.952541243820363,-0.0103193968715295,-0.0213546472647694,-0.000919675410732446,0.069776087023574,-0.0485932237040475,0.0592435236545073
107,107,0.0812303673512343,0.114003029244366,0.952550011163554,-0.00915507527890429,-0.0217656581116668,-0.000488574075950974,0.0886262076990192,-0.0790895992040681,0.0917243503883412
108,108,0.0811812228200106,0.114017981799109,0.952558970540159,-0.00808544439356874,-0.0221107458907415,-6.06735258876567e-05,0.0981737106114521,-0.0688601536798936,0.0464613152842814
109,109,0.0811380625918302,0.114029868811353,0.952567420633067,-0.00718622916246987,-0.0224427301917691,0.000229467979940825,0.0972735594306573,-0.0826616645979943,0.0067995954954879
110,110,0.0810933451738967,0.1140393379333,0.952574662482837,-0.00652050335574731,-0.023155372319483,0.000275747554225397,0.0875148739737479,-0.0721228693524739,-0.0194063703295544
111,111,0.081049710096524,0.114047448215325,0.952580747534644,-0.00665713051203046,-0.0239263549429067,-1.44512939207211e-05,0.0885463372078573,-0.0625376518960798,-0.0359580407233769
112,112,0.081012157085209,0.114053802108344,0.952586138700478,-0.00683101132825375,-0.0244108433467128,-0.000574100157219764,0.0867765813744289,-0.11577784799749,-0.0515319138161923
113,113,0.0809766866942699,0.114056893506537,0.95259075564886,-0.00741754453110675,-0.0250498367132919,-0.00124449473467255,0.111370523415206,-0.112310457410115,-0.0514020845363189
114,114,0.0809393054280255,0.114055227487893,0.952594517583222,-0.00794897630429202,-0.0255047903451137,-0.00189090763272893,0.118893822596163,-0.153750138385421,-0.0476768419266792
115,115,0.0808960256413384,0.114047319568347,0.952597343194329,-0.00814647615781027,-0.0259133887843731,-0.00236011868390197,0.117524771932137,-0.169575827673514,-0.08951922784979
116,116,0.080843119819373,0.114032265376078,0.952599010525899,-0.00828546534111045,-0.0264262629018587,-0.00264174849488452,0.112045947794009,-0.171268496630121,-0.0549074322609995
117,117,0.0807832375342562,0.114011112444605,0.952599570647867,-0.00851416756914097,-0.0269129447749451,-0.00282307486591445,0.163157714587837,-0.180465338049099,-0.0509228171377675
118,118,0.0807219624154653,0.113985308139002,0.952599350094908,-0.0084874616004539,-0.027368734996499,-0.00294019649722515,0.0827635016054951,-0.192242641266619,-0.0395911850244721
119,119,0.0806648795476983,0.113956295821713,0.952598673826797,-0.00856226533904286,-0.0272806894645042,-0.00299815358641955,0.0723397433244684,-0.218009619349686,-0.00263507323290877
120,120,0.0806175751244072,0.113925515106017,0.952597865429785,-0.00833541869761018,-0.0274133643317602,-0.00305176650628186,0.0634433845977758,-0.176862999727833,-0.0259569531831242
121,121,0.0805812079603956,0.113894274551685,0.952596713633451,-0.00814275298283256,-0.0274453163163493,-0.0030858316814782,0.0689634818867843,-0.208116130347085,0.000295899493543245
122,122,0.0805520530970548,0.113861654567987,0.952594995857686,-0.00757742288857227,-0.0273079228604423,-0.00306653464534726,0.0504238409708527,-0.165633558088066,-0.0458371311201674
123,123,0.0805283671491735,0.113825749496594,0.952593018537861,-0.00704190062321451,-0.0273819850944854,-0.00303343121483494,0.0677461134691821,-0.156530272063171,-0.0155902193504014
124,124,0.0805084013097056,0.113784652969098,0.952591089070744,-0.00651341315402828,-0.0272973943167881,-0.00296678808278574,0.0224508098926659,-0.158986469866279,-0.0309958117897532
125,125,0.0804904020428867,0.113736457706707,0.952589515722645,-0.0061800265568656,-0.0270662112093344,-0.00289874852481456,0.0547506428314769,-0.161830017153302,-0.0112167103657404
126,126,0.0804776606666573,0.113680539842991,0.952588086644123,-0.0060126442296057,-0.0265021546661532,-0.00282708335654782,0.0704233379060179,-0.159719682694191,-0.0409624953279789
127,127,0.080471332131154,0.113618205094051,0.952586592886107,-0.00609868922081656,-0.0260456508164817,-0.0027449403506651,0.072291820737406,-0.139167048635303,-0.0193631062612617
128,128,0.0804664574547706,0.113550433733253,0.952585347804247,-0.00626504947081865,-0.0252684764893801,-0.00264907432643286,0.066361571466317,-0.163179878180065,0.00166849108359196
129,129,0.0804580801615181,0.11347819901833,0.952584664948398,-0.00669262523502402,-0.0247494455934023,-0.00249170683659227,0.0750886407010781,-0.130899923200599,-0.0172557164746509
130,130,0.0804412456876302,0.113402468451593,0.952584858092535,-0.00692831573684127,-0.0245309106421594,-0.00230369889909145,0.053988221038349,-0.145918390283947,-0.0157995323341482
131,131,0.0804133291460801,0.1133215857767,0.952585777307382,-0.0071219739827943,-0.0245830519600346,-0.00203354323935855,0.0075301497842987,-0.150480553637886,-0.00369381796570503
132,132,0.0803776265629571,0.11323492004274,0.952587211198041,-0.00761623259769686,-0.0251046092672873,-0.00169077152379499,-0.00795493164706887,-0.154412928326494,0.00663428321690689
133,133,0.0803380665433444,0.113144970382427,0.952589381980949,-0.00813185274749891,-0.0254639812036639,-0.00130941753848846,0.00643413679713762,-0.158800390303795,0.00566958994344758
134,134,0.0802985788231784,0.113054232336198,0.952592512306374,-0.00907325355018491,-0.025572831491776,-0.00093172249271096,0.0111268356151758,-0.171248890713781,0.0392521402055404
135,135,0.0802630944859989,0.112965197961924,0.952596825170354,-0.00920415880369172,-0.0252671125319255,-0.000621971309915017,-0.00969798234268455,-0.156789038422323,0.0176196708420185
136,136,0.0802332126143334,0.112877228901137,0.952602938768461,-0.00936602383359145,-0.0244645550493521,-0.000347979219492345,0.054316425504859,-0.108477778860251,0.0598699827480305
137,137,0.0802063080055463,0.11278866803437,0.952610704024986,-0.00904186794412264,-0.0232461577579744,-7.00448972303498e-05,-0.0152073003612679,-0.0987180509608367,-0.0213668529878537
138,138,0.0801799768932472,0.112700477159427,0.952619193394573,-0.00893312196099886,-0.0216471255864361,0.000159573057429007,0.0485080589295742,-0.0885438719004822,0.0269275569519267
139,139,0.080151816256307,0.112613618349313,0.952627479375915,-0.00873246104300367,-0.0200777356794231,0.000321686700633415,0.00964205206282981,-0.0963194956802557,-0.0195494634363355
140,140,0.0801194238236047,0.112529053756737,0.952634634404052,-0.00882135700533764,-0.0188909295066662,0.00037641465269878,0.0401805379068376,-0.0597277307633216,-0.00777117873238524
141,141,0.0800852913928981,0.112446044444325,0.9526406215992,-0.00913046792063781,-0.0185339827828881,0.000254381519343976,0.0744041345256291,-0.0050055193039069,-0.0226244289316741
142,142,0.0800510180688189,0.11236395363559,0.952646059166256,-0.00913729315259448,-0.0185221043194704,-2.23388235922962e-05,0.008919571057085,0.00247809666783115,-0.0344860679829644
143,143,0.080012863447186,0.112283896021058,0.952651001983488,-0.0092729051160855,-0.0183072689499318,-0.000347164718967789,0.00129499139490272,-0.040645098206303,-0.0399256722032597
144,144,0.0799670876240505,0.112206985520721,0.952655504804813,-0.00962848920185437,-0.0183733429571516,-0.000650295983526423,0.00962552645444939,0.0048803823993298,-0.0372416019174443
145,145,0.0799099510255668,0.112134335430414,0.952659622324819,-0.00967765930778082,-0.0180421005629423,-0.000829109190507184,-0.065262998930271,-0.0298185901939305,-0.0376226244585863
146,146,0.0798354561220011,0.112065575711286,0.952663566792071,-0.0102987600623313,-0.0168143288184863,-0.00081303158992147,-0.0214818957636436,-0.0168891564213032,-0.025197278460272
147,147,0.0797460940521623,0.111999966829003,0.952667301894477,-0.010937570969865,-0.0153485015066154,-0.000691344533045674,-0.0322131537797982,-0.024337027946367,-0.0100192756675566
148,148,0.0796508593583014,0.111938065550462,0.952670508605652,-0.0117939043486495,-0.013907748684452,-0.000521166576822253,-0.00869734890975656,0.0107426951078776,-0.00200418566234189
149,149,0.0795587478159535,0.111880426258395,0.952672866703641,-0.0126653681816123,-0.0126903034979626,-0.000379941986333645,-0.0160614079645266,-0.0112662900498952,-0.00271775393368438
150,150,0.0794787562829932,0.111827601508701,0.952674054907065,-0.0130919524665225,-0.0119079379775606,-0.000367469925409678,0.0168547985248835,-0.0320886045403107,-0.00522436428552726
151,151,0.0794108859525001,0.111782597644062,0.952673835679175,-0.0131140096368606,-0.0117592452427805,-0.00049560146526864,-0.0318549586529099,-0.000862185195550564,-0.0321302168144803
152,152,0.0793491383674207,0.11174504427091,0.952672421081363,-0.0130036656587279,-0.0120914865383515,-0.000737274608390281,0.0344569426109163,0.0303076072035243,-0.000336546847128646
153,153,0.0792935123943732,0.111710429155997,0.95267016361917,-0.0123193053682677,-0.0125244259728623,-0.00101385746188087,-0.0388208502676797,-0.0408085133447401,-0.0584690806399734
154,154,0.0792440085002419,0.111674240883876,0.952667415734898,-0.0117094099885473,-0.0128784276901223,-0.00127880988151461,-0.039927005295708,0.00125588323012897,-0.0345458109716785
155,155,0.079200629082578,0.111631968281822,0.952664529787769,-0.0110635657628346,-0.0128112355855724,-0.00145665215775163,-0.0828154737100881,-0.0156988955417865,-0.0145665136531834
156,156,0.0791665056354089,0.111583442424177,0.952661472495893,-0.0106006997910915,-0.0122541678613854,-0.00157320433992689,-0.051070785067195,-0.013718759036664,0.00569258264848266
157,157,0.0791416409102391,0.111531670172053,0.952658007918886,-0.00994090891067522,-0.0113610217636771,-0.00166222431976565,-0.114423579113722,-0.0368014500929267,-0.00897251505354724
158,158,0.0791213437024746,0.111476906476124,0.952654184162159,-0.00931521985426925,-0.0104526331948493,-0.00170304536814712,-0.0968935096452732,-0.0309201199193935,-0.00524649227875764
159,159,0.0791009198407158,0.111419409619371,0.952650049054547,-0.0088834634934458,-0.00982494297725171,-0.00168213612696418,-0.0823857747223174,-0.0015968908705799,-0.0270045995760466
160,160,0.0790756721977535,0.111359440510324,0.952645650189154,-0.00888182250802455,-0.00965486829271779,-0.00158745913104657,-0.0723395288174191,-0.0600776956876864,-0.00191319992877333
161,161,0.0790441097994383,0.111297866011268,0.952640638738195,-0.00936139098438661,-0.0102428881482121,-0.00136644492704797,-0.0321192083286675,-0.0392714083338734,0.040472819558139
162,162,0.0790093620518098,0.111234518071598,0.952634981988187,-0.0101990351911187,-0.0119178941054398,-0.00104443355545442,-0.0379711076874588,-0.032020562968118,0.0158282199421933
163,163,0.0789736600393922,0.111168103186906,0.952629201981758,-0.0109716377495153,-0.0136952704714099,-0.000677224440533259,-0.0548661330293947,-0.0600866942034168,0.0349181020120459
164,164,0.078939234582511,0.111097324362472,0.952623821177607,-0.011577833921067,-0.0152293948662428,-0.000309453892651515,-0.073364040901659,-0.0644520594215668,0.0216994986328368
165,165,0.078908316709421,0.111020882995208,0.952619362255594,-0.0116627843069506,-0.0159364931811613,-1.86363529663775e-05,-0.114458321858029,-0.116258113456155,0.0245694814054455
166,166,0.0788828595361241,0.110936904039607,0.952616068689629,-0.0109824070818741,-0.015907161212622,0.000220538068394556,-0.130004184740953,-0.062629007130734,0.033552813736626
167,167,0.0788613752636612,0.110846252336652,0.952613592562385,-0.00977879389119413,-0.0154513150426436,0.000446596541001176,-0.152346984571783,-0.102160447910881,0.0456687592366084
168,168,0.0788409343985978,0.110751740042159,0.952611569546517,-0.00868443254114489,-0.0150890583490929,0.000644131456685181,-0.176673156176877,-0.0750723746427417,0.04958815180911
169,169,0.0788186079135018,0.110656179641563,0.952609635394492,-0.00761396023967885,-0.0145948342259735,0.000773101176970286,-0.179633019210934,-0.0448997244134846,0.00531163220363302
170,170,0.0787914671144457,0.110562383530524,0.95260742604833,-0.00730352601540441,-0.0138888597830864,0.000794513637004512,-0.104339917655274,-0.0795725138196347,0.0337943017158359
171,171,0.078762350714417,0.110466865032604,0.952605152826503,-0.00745985968242035,-0.0134679808079176,0.000649706356226044,-0.138263733292235,-0.0665085387035262,0.0177580456014751
172,172,0.0787332152299139,0.11036775748827,0.952603058909615,-0.00809836095262021,-0.0131279165692402,0.000359610065922273,-0.0878421419155671,-0.0394946592762183,-0.0025456670262704
173,173,0.0786998085481443,0.110270299398536,0.952600829073433,-0.00905720408119523,-0.0130136375414183,6.15810349312208e-06,-0.0893362740308932,-0.0350293601392554,-0.0126094743335233
174,174,0.0786578778980048,0.110179722803944,0.952598149405502,-0.0099467101404914,-0.0125877518022869,-0.000335318254968581,-0.0448074354577659,-0.0201981221384824,-0.0176549127193912
175,175,0.0786031695614812,0.110101251515405,0.95259470737456,-0.0109546483192724,-0.0118856953618673,-0.00055421865630194,-0.0245337279726954,0.010905905780994,-0.0479865898459713
176,176,0.0785302771110866,0.110037140026783,0.952590119243628,-0.0114921772729264,-0.0103489354950753,-0.000679170850900717,-0.0181324709006553,0.00607774766195578,-0.0292695679622871
177,177,0.0784420395748674,0.109983893409667,0.952584598359122,-0.0118331166858373,-0.00787691777264646,-0.000736420136388991,-0.00222516383858881,0.0321391329535593,0.00695497171141126
178,178,0.0783465715820812,0.10993810642139,0.952578728119365,-0.0118824580519771,-0.00548943121111,-0.000765736468422759,-0.0508293111834991,0.0457997231711871,0.0218377455604821
179,179,0.0782519894234808,0.109896377327404,0.952573091242741,-0.011615788374218,-0.00328229333669255,-0.00075688945026151,-0.0710565767695565,0.0867232339784047,0.00977581140377535
180,180,0.0781664112111052,0.1098553085207,0.952568269814883,-0.0114897212408492,-0.00171956261679776,-0.000718800199759576,-0.088572727690722,0.093125624016246,0.00643809893529173
181,181,0.0780916405448914,0.109812804234975,0.952563847120064,-0.0115775132203398,-0.000538625821392222,-0.000652761756327662,-0.0625715762695546,0.0915023555798673,0.0198518269807981
182,182,0.0780222749824366,0.109771119383523,0.952559439827967,-0.0116704259026436,-1.69241291811582e-05,-0.000569484454232495,-0.0647100805372801,0.0832038981614893,0.00750988622618195
183,183,0.0779556236313355,0.109733388062529,0.952555678905831,-0.0117228837042963,0.000841620223439396,-0.000456149416911608,-0.0438031739365421,0.105493288968959,0.0368967145967439
184,184,0.0778889938644405,0.109702748060522,0.952553194345586,-0.0111725139730695,0.00125588658345395,-0.000313461453782224,-0.0854077046472052,0.131481150560477,0.0116383023096484
185,185,0.0778196912115884,0.109682341372864,0.952552615045878,-0.0111497783843193,0.00264275953277242,-0.000115185335740191,-0.057484662047405,0.113729344449789,0.028363241319937
186,186,0.0777478237219359,0.109667075023429,0.952554380876312,-0.0111239434582725,0.00436816616544374,0.000194835736509874,-0.0603299134433157,0.14942494441936,0.0549902663198647
187,187,0.0776751924898819,0.109654850814072,0.952558076955045,-0.0112330757258904,0.00647857696695452,0.000620336088642207,-0.0714496988235387,0.14438072580564,0.0349083775607569
188,188,0.0776016442406458,0.109653308983572,0.952563047370066,-0.0117080382735918,0.00856150295502103,0.00105851679199088,-0.0180270362906994,0.143499675757028,0.0527417767613288
189,189,0.0775270301448546,0.10967009347373,0.952568633573546,-0.0121743005003252,0.0104316822173328,0.00140980081941943,-0.0198466474732815,0.153193174800491,0.0298646405438301
190,190,0.0774512060862312,0.109712851719667,0.952574174488637,-0.0125070503285104,0.0122494057927073,0.00157821091650044,-0.0185052867214812,0.146260083912305,0.0247595951114449
191,191,0.0773735905475172,0.109781898852705,0.95257966627708,-0.0118685619030247,0.0140545193687339,0.00148603703550328,-0.0446179703754729,0.189664209873983,1.12064211327958e-05
192,192,0.077294300813016,0.109872140961887,0.952585548260435,-0.0112532841106953,0.015899276545584,0.00123293230706606,-0.0781221487359546,0.170298077179158,0.00340324945856442
193,193,0.0772142409524691,0.109983115521076,0.952591822966524,-0.0104185961073971,0.0177776816814769,0.000890059173295066,-0.0454206729053924,0.163035409529491,-0.000514642445153379
194,194,0.0771343093425551,0.110114362256874,0.952598493467743,-0.00949132775992857,0.0198318653387133,0.000553682697069741,-0.0663963271788891,0.168081238644691,-0.0149635654731891
195,195,0.0770553977704835,0.110265423139401,0.952605563374844,-0.00876544360178798,0.0218244041153185,0.000328332162092888,-0.0479860904839286,0.167029654390578,-0.0164773456876719
196,196,0.0769824559203609,0.110438380969652,0.952612943110046,-0.00850090753761653,0.0240435629586091,0.000210796891391324,-0.0197223349087943,0.154004468340607,-0.0118262219334918
197,197,0.0769148937932812,0.110633554816335,0.952620631736458,-0.00819756728338564,0.0257663270528397,0.000141822194552748,-0.0243275622174816,0.176192573092705,-0.0186965855441464
198,198,0.0768452912094767,0.110847834580942,0.952628766254278,-0.00800311483121295,0.0279714221470863,0.000103784868254779,0.0400614233431086,0.130230817061131,-0.00034487976144737
199,199,0.0767662323894336,0.111078099890565,0.952637483634438,-0.00807548667217344,0.0301650322848278,0.000103024584548573,0.0315494461603838,0.123919035402742,0.0040352588081532
200,200,0.0766703062621576,0.111321220193731,0.952646920667215,-0.0087529916145209,0.0321443481900053,0.000141878104165278,0.0224172452283703,0.117474836136868,0.0264140467192278
201,201,0.0765540377108906,0.111576623667038,0.9526574099387,-0.009587048094858,0.0336045856373099,0.000230168284563877,-0.00937146038648929,0.177040819625614,0.00116982334498235
202,202,0.0764223827861465,0.111846381314842,0.952668862921536,-0.0109756579790983,0.0354630547897256,0.000376681656829347,-0.00905150586188246,0.144332684233079,0.0206609271361434
203,203,0.0762805789746754,0.112131322886243,0.952680783295255,-0.0127906380014378,0.0371835723760061,0.000557390528177937,0.00822318657741793,0.200295070527925,0.0226681534364292
204,204,0.0761338619421813,0.112432283447348,0.952692673156254,-0.0145097712019683,0.0388015804285676,0.000728005016761904,-0.0178273735111831,0.200754483958677,-0.00374492029708288
205,205,0.0759874656859025,0.112750103448329,0.952704033093893,-0.0157923178599368,0.0408901260651733,0.000849427888806334,-0.00889616756307389,0.217634771543322,0.0153238808944833
206,206,0.0758399390776032,0.113088567612374,0.952714490561405,-0.0162470139857672,0.0430083638156362,0.000909085738062483,-0.0524127312352951,0.249809572811107,-0.00107350180498795
207,207,0.0756878073467353,0.113447103802336,0.952724378607497,-0.0166443016471362,0.045768170311905,0.000914595027236734,0.0036169826467243,0.232833700651899,0.00561892442503584
208,208,0.0755332615046331,0.113820034569908,0.952734253946107,-0.0164810923130166,0.0479659260704551,0.000903210335944786,-0.052511908270819,0.272303147457696,-0.016580570973858
209,209,0.0753784839195963,0.114201700342181,0.952744671704434,-0.0166056852204518,0.0503216851690092,0.000898069852315208,-0.0095963353111387,0.243374248989423,0.0203051228417578
210,210,0.0752256478939768,0.114586458313626,0.952756185831321,-0.0166836967228087,0.0520220409309751,0.000924898785305704,-0.0482674688023191,0.243125849041379,0.0138805968456744
211,211,0.0750748206758419,0.114970920000561,0.952768742972286,-0.0169076150376475,0.0533339541036808,0.00100142888389292,-0.0945612053049704,0.221875105713372,0.0224272877124431
212,212,0.0749245466262838,0.115358880624955,0.952781972656547,-0.017165395671523,0.0542682966899634,0.0011021600455444,-0.0716101855326852,0.240919375050209,0.0162650835727911
213,213,0.0747747048905203,0.115755478669225,0.95279595219709,-0.017730117555821,0.0546396962630816,0.00120590702155738,-0.08905156165048,0.208789056402628,0.0413182516139437
214,214,0.0746251715451607,0.116165844941686,0.952810758355328,-0.0182744099273463,0.0549022885867555,0.00128533109514251,-0.0622586010726064,0.226166891876579,0.0116421917778686
215,215,0.0744758202479443,0.116595103099129,0.952826467576802,-0.0185780281424875,0.0552269573761643,0.00129801286416378,-0.0755444478205961,0.220035317995054,-0.012073909143309
216,216,0.0743246000921241,0.117042813478799,0.952844437448591,-0.019081018780985,0.0562380707154103,0.00125535627396118,-0.0582481259168482,0.156047293727108,0.0057713894977205
217,217,0.0741715877247401,0.117505571457302,0.952864618845791,-0.0194863486377002,0.0572115620045133,0.00118396893605838,-0.0465192782249453,0.207677784358435,0.0233437727824446
218,218,0.0740198362639465,0.11798404530254,0.95288497830394,-0.0196822108205769,0.0587485951288504,0.00108124756337952,-0.0311872585003536,0.145517146031545,-0.00956911477696053
219,219,0.0738723858539131,0.118478898751093,0.952903482292466,-0.0196154866582246,0.0600239302319371,0.000938469963577716,-0.0599679278222981,0.138845642169077,-0.0329358781743299
220,220,0.0737322646789871,0.118990790863763,0.952918096976475,-0.0194315509008994,0.0608809505726556,0.000766728389916514,-0.0288861790759376,0.113618138782472,-0.0111306512969144
221,221,0.0735941952229102,0.119527563279544,0.952928533845916,-0.0186708975592882,0.0618325536421995,0.000466612540230353,-0.0509940467596802,0.11885548735781,-0.0358345092107772
222,222,0.0734561224272156,0.120088769096422,0.952936154067112,-0.0176089933017741,0.0635099633207347,2.5131922421818e-05,0.00855902317407926,0.0340352675896288,-0.00567013272225783
223,223,0.0733259026268072,0.120662636920928,0.952941398535788,-0.0160102086759705,0.064546012660034,-0.000401855468794479,-0.0397445921377045,0.0520841537223136,-0.0266550228564534
224,224,0.0732113956490699,0.121237402159179,0.952944709175932,-0.0144500396138776,0.0655220652631738,-0.000641221713312443,0.0284071963179466,0.051019982619745,0.0154222968921844
225,225,0.0731204645961977,0.121801305795245,0.952946529049796,-0.0123547670339389,0.066137661647421,-0.000539161345710835,-0.0326242841612596,0.0221259945721247,-0.013623806154561
226,226,0.0730572229016597,0.122357011558558,0.952946905492872,-0.0107155015047828,0.0662107734144341,5.0825799846255e-05,0.0040389464058169,0.0420266645180923,0.0756091226296974
227,227,0.0730164045129711,0.122912361302206,0.952945560004717,-0.0086484721377541,0.0652707617105582,0.00101796248855512,-0.00668849057346833,0.0797495723269841,0.0975702319788811
228,228,0.0729918135992673,0.123463365094887,0.9529424399577,-0.00637907727861255,0.0640043206102932,0.00214113805628849,-0.0645346729125601,0.0685177773755202,0.0965727429380745
229,229,0.0729772638891145,0.124006033100868,0.952937480568453,-0.00466811075925316,0.0624212534451184,0.00321519466257552,-0.0526036498121296,0.0797728961215354,0.144372177800082
230,230,0.0729665772160069,0.124536377081936,0.95293060437949,-0.00296557146988455,0.0609792646957453,0.0039993365811504,-0.00842657784837672,0.0399327413756078,0.146243348813161
231,231,0.0729615776329741,0.125051278326859,0.952921342075124,-0.00149401857046191,0.0596959322788203,0.00454751178415579,0.00278971017423353,0.0778116205216525,0.101516661590691
232,232,0.072966387159883,0.125553394281819,0.952909737554922,-0.000346806537506064,0.0584332204216176,0.00497110248312895,0.0304957696059554,0.0343250075510731,0.0736008901882189
233,233,0.0729782788729362,0.126047398386529,0.952896469632378,0.000215253283281772,0.0569347071729398,0.00524765578490889,0.0775190921548228,0.0215085115326441,0.0472071624023018
234,234,0.0729945249287173,0.126537959472829,0.95288221125582,0.000668772140812734,0.0554265029144982,0.00535183622860493,0.0918218840850189,0.0295743925035673,0.0597051739093109
235,235,0.0730123967293873,0.127029742720714,0.952867630758839,0.00148770256390752,0.0542848837073788,0.00525000850365295,0.0553218979487108,-0.00526881998617951,0.0376465529117962
236,236,0.0730329713199444,0.127527759129125,0.952850910251569,0.00231706474273407,0.0532415667911477,0.00486751823603142,0.0447322218879553,0.0162608621676276,-0.00594928996252419
237,237,0.0730580677300203,0.128028887438702,0.95283158576024,0.00264113432790654,0.0524110288216319,0.0042235148830665,0.0860341193271252,-0.0141808184371917,-0.000383543788702154
238,238,0.0730860691007453,0.128525592754481,0.952812356718724,0.00317915510533759,0.0517653341932812,0.00343692614045223,0.037335358087698,-0.0333483124094877,-0.0468799786145863
239,239,0.0731153577641311,0.129010340630575,0.952795925578116,0.00323457048528464,0.0509163696841532,0.00261841818689868,0.101508946573373,-0.0646632593502257,-0.0306178647089842
240,240,0.0731443153561391,0.129475597044493,0.952784997214018,0.00356513787519117,0.050095564064403,0.0018944059430299,0.0478165668709961,-0.0661777684683693,-0.067970581419274
241,241,0.0731759350019333,0.129924103359381,0.952772862419948,0.0039833230764863,0.0488456503552807,0.00116515083089026,0.0652295182402662,-0.0743555731818719,-0.0609732885345647
242,242,0.0732112917326803,0.130360876563241,0.952757712287282,0.00430890057249319,0.0475971074537668,0.000375892218345981,0.0962706499783133,-0.0777644507052702,-0.0751823772374064
243,243,0.0732458919886828,0.130781797121421,0.9527496065754,0.00455131795353547,0.046158883062993,-0.000368496409234158,0.0791583122475384,-0.0638620197973403,-0.0679964472251857
244,244,0.0732752450854506,0.131182745950388,0.952758608106065,0.00451719534865996,0.0446076796549636,-0.000965221206228866,0.142598924145053,-0.0359657730150747,-0.0535218310497492
245,245,0.0732948627804954,0.131559604009378,0.952794781599809,0.00427461660365027,0.0429867053206653,-0.00129380061927139,0.119523799444719,-0.00380458489400712,-0.0536516312821222
246,246,0.0732995042846202,0.131907870703909,0.952873001636555,0.00390508390192612,0.0411385690229989,-0.00123728202239286,0.121228166974984,-0.0164671995358704,-0.727683146548766
247,247,0.0732921644640996,0.132230290191793,0.952986561798751,0.003254631368899,0.0391067727783694,-0.000881091932521947,0.14741606147012,0.0117466759787014,-1.06419902255344
248,248,0.073280708867571,0.132533611045216,0.953113154530652,0.00294606270644832,0.0374698613769647,-0.000394529456336366,0.102228408865598,-0.0303010150639521,-1.08227607963921
249,249,0.0732730016646951,0.13282458276774,0.953230470896528,0.00292848817964883,0.035986747480281,4.87452154011592e-05,0.0776870814688072,-0.0347735731113213,-0.735183619940527
250,250,0.0732769061068913,0.133109955495045,0.953316201174889,0.00275515245862209,0.0344735597175738,0.000289697776953901,0.0915541703483429,-0.0404639216118153,-0.0136939192586905
251,251,0.0732950547789063,0.13338827807087,0.95336471210348,0.00308633676934887,0.0327463959339402,0.00026247460489622,0.0775453159372526,-0.00248197856203702,-0.761016354068892
252,252,0.0733222033060981,0.133655051033829,0.953390876516983,0.00356909277304524,0.0309163531559098,7.82359052968686e-05,0.044530612757493,-0.0121327613112427,-1.14057043948395
253,253,0.0733543996227597,0.133912452078244,0.953403143085033,0.00418432448421055,0.0293600325590049,-0.0001762924120705,0.0334557422184122,-0.0298708304219463,-1.11998966041038
254,254,0.0733876923808166,0.13416265907455,0.953409959568354,0.00483223569304984,0.0277017595079649,-0.000406247817476869,0.0428206327827912,-0.0609924637586746,-0.727396904588293
255,255,0.0734181309096427,0.134407849924052,0.953419772785731,0.00518570376000405,0.0266459555548668,-0.000510119195660849,0.0308234544044925,-0.124777330023443,-0.0187229275667767
256,256,0.0734463536464974,0.134650731919819,0.953432192733493,0.00501848891553405,0.0248082419815759,-0.000444536455119883,0.0846009242651922,-0.0310645846162464,0.0330493601647847
257,257,0.073474993784834,0.134889853010653,0.953441587268187,0.00483069164169112,0.023510458388975,-0.000260652106034169,0.0351863288909168,-0.0868840310894609,0.00725169950008913
258,258,0.0735030935375732,0.135121152106514,0.953448539464885,0.00429974272378039,0.0220409163170313,-3.89895441475748e-05,0.0647531496142105,-0.068630598254842,0.0148859741044825
259,259,0.0735296956586758,0.13534056877548,0.953453632076933,0.00392349683988167,0.0205869090606024,0.000146066887146329,0.0296368109334038,-0.0541771556640797,-0.00132258424071728
260,260,0.0735538434399672,0.135544043419424,0.953457447335134,0.00366372961680793,0.0193074475949446,0.000219761093580477,0.0479347943241803,-0.0479666872492138,-0.0293641032591231
261,261,0.0735733562274355,0.135726923838326,0.953459808761841,0.00351462343184731,0.0183882315224641,0.000128051043228619,0.0508917137429675,-0.0612698452283258,-0.0211638955515086
262,262,0.0735888727949576,0.135891917287623,0.953460326905543,0.00327528469710486,0.0174664770752372,-6.68310432760372e-05,0.0394788415367515,-0.0558852552386082,-0.0317147630378014
263,263,0.0736036653069327,0.136046004287168,0.953459264337666,0.00306828839135181,0.0167509478688494,-0.000316199379767407,0.0875753329058907,-0.0192211464114272,-0.0155456215133372
264,264,0.0736210052189918,0.136196165817492,0.953456883990294,0.00283989176226781,0.0158415350257144,-0.000527696482679083,0.0867787456248015,-0.00452502747693275,-0.00510234890637062
265,265,0.0736441633376672,0.136349383307579,0.953453449283325,0.00316911644611272,0.0154637062220079,-0.000665862851405421,0.0520606847777906,-0.025522003482982,-0.0356613755017806
266,266,0.0736724620834407,0.136507035306015,0.953449614379534,0.00307578841091953,0.0150206408137917,-0.000694351692949343,0.0651482243223947,0.00982721806968434,-0.0108782786712601
267,267,0.0737037198139536,0.136664469840738,0.953445203961977,0.00315041974960079,0.0144953472769177,-0.0006613934695784,0.0339898688688673,-0.00699057828795193,-0.023667389365369
268,268,0.0737389511860079,0.136819622663208,0.953439237408812,0.00335513446020395,0.0140608119680313,-0.000591178056049326,0.0449385187423989,0.0162095575817761,-0.0174982555130081
269,269,0.073779171530717,0.136970429384195,0.953430733483644,0.0035697788430137,0.0139326818154045,-0.000492976452007448,0.0334056295891124,0.0143800285931323,0.0240672834822614
270,270,0.0738253968980451,0.137114825467412,0.953418710336591,0.00371223239967501,0.0135266788278501,-0.00036372560404214,0.00790118330301463,0.0308016824864983,0.0497671515153081
271,271,0.0738783404906396,0.137249954809301,0.953408834225752,0.00415867048544374,0.0132193964490057,-0.000167650673395519,0.026472333961755,0.0412676064560742,0.0334888138992935
272,272,0.0739373267685415,0.137377196357133,0.953401759027536,0.0044026622083193,0.0127226275581625,0.000108840984366835,0.0454644509186276,0.0391117889691835,0.0527582577029614
273,273,0.07400128804289,0.137500836892246,0.953388984719894,0.00495038396219189,0.0120229938857692,0.000390085101170355,-0.0164874422577626,0.0604145422864508,0.056281876860161
274,274,0.0740691548603513,0.137625161684002,0.953362011933827,0.00525835111501806,0.01141569491192,0.000618680872474759,-0.0137269507710721,0.0331902927485805,0.00807177376622645
275,275,0.0741398558945103,0.137754454425815,0.953312341875988,0.00566850050388507,0.010773957723726,0.000707554734867824,-0.0286535135203926,0.0387008085656886,-0.00254959250795536
276,276,0.0742170097647541,0.137891173738922,0.953225759526977,0.00592475569252216,0.00990328441843663,0.000630397136972561,-0.0537146731926344,0.0270109959364379,-0.00493676181491548
277,277,0.0743013282567282,0.138032461558294,0.953107932640563,0.0061711970287193,0.00897236000137104,0.000421605371806252,-0.011054872673485,0.0617173037533015,-0.0260810409422293
278,278,0.0743873785152223,0.138174626600838,0.952980186770367,0.00606021516620629,0.00796250499231336,0.000152472126537275,-0.0141950117019914,0.039819289838625,-0.00601801073251619
279,279,0.0744697277170731,0.138313979290044,0.952863847045166,0.00588512673923034,0.00719465910786742,-0.000125736863616635,0.0125424323322535,0.0683012306371642,-0.000320915650401665
280,280,0.0745429430471174,0.138446831842604,0.952780238074805,0.00552460505653124,0.0069894366308091,-0.00033157150463063,-0.014658507969457,0.0352056404137953,0.00238610013186525
281,281,0.0746138697796665,0.138569403938424,0.952735203247732,0.0053205316309116,0.00771259962654171,-0.000504712480568928,0.0203470053568131,0.00763927239147219,0.0158987441551098
282,282,0.0746861273761654,0.13868415513544,0.95271452630886,0.00509246367838526,0.00834767578761552,-0.000644884341973376,-0.00611784314033717,0.0491986311238917,0.0281775671802208
283,283,0.0747494442063483,0.138796760303014,0.952709442420571,0.00514602929046972,0.00956667818937991,-0.000788269067766794,-0.0145577358164673,7.83800703801236e-05,-0.00266621697622445
284,284,0.0747935484422728,0.138912896404742,0.952711187474536,0.00485139053964824,0.0105377082615108,-0.000908599900517062,-0.00524776755124121,0.0601119857804071,-0.0328924872532792
285,285,0.0748081682455012,0.13903824354328,0.95271099840755,0.00419313595792629,0.0113026767402746,-0.00101890556229163,0.0122716188657119,0.0751475999454103,-0.0391560094363386
286,286,0.0747832576882,0.139176504273049,0.95271120617956,0.00323016349343448,0.0116184763999987,-0.00115770048567076,-0.00798117835627382,0.0821191772138345,-0.0387339744973958
287,287,0.0747256624904906,0.139323905329597,0.95271766190564,0.00215794702064243,0.0119215827665583,-0.00134354744232216,0.0442241097146411,0.0883896263552782,-0.0234744450356673
288,288,0.0746504484868556,0.139474914358369,0.952726875396189,0.00108511584570125,0.0128034277930309,-0.00151484278365843,0.0892219069927345,0.0769144151127261,-0.00492436807594442
289,289,0.0745726812056811,0.139623993965418,0.952735342530748,-0.000229742339552006,0.0137695389656803,-0.00154833345097126,0.129776754639618,0.0680756070117875,-0.015256921429928
290,290,0.074507425461062,0.139765596666336,0.952739550430751,-0.00189826307717216,0.0147000890290383,-0.00137702764871594,0.184065274834554,0.168676163515253,-0.00733294716920044
291,291,0.0744533076981319,0.139892969009323,0.952739742178293,-0.00364044752460694,0.0161258845926208,-0.000938302510490757,0.175621061495849,0.173330701005393,0.0188076171497304
292,292,0.0744002820549652,0.140009817161059,0.952738253515203,-0.00483485962897091,0.0170733161538148,-0.000262789687336231,0.045048013828323,0.234028947872857,0.0269081337957685
293,293,0.0743504023893958,0.140126237743049,0.952734718726868,-0.00531092967448092,0.0171382252989418,0.000513132402658087,-0.0594164442630943,0.279643731241198,0.0560476110714697
294,294,0.0743057208177552,0.140252283522212,0.952728793607987,-0.00502383126842756,0.0168287331026954,0.00122216027184865,-0.147649744290115,0.306616663192544,0.0767657824139464
295,295,0.0742682884948207,0.140397976991673,0.952720184227503,-0.00483372660869604,0.0171611984852914,0.00174668267661547,-0.232493882423649,0.213725922342607,0.130327800129665
296,296,0.0742436078921378,0.14056103160091,0.952714666615219,-0.00457095852035858,0.0183668351235811,0.00234830542734422,-0.306204069701909,0.134422806182395,0.163005830152821
297,297,0.0742303105383256,0.14073473571701,0.952712617069975,-0.00481409190336459,0.0194806615748687,0.00311665651604662,-0.276605627788059,0.122687092086256,0.130872037289974
298,298,0.0742201333464686,0.140922422914392,0.9527057402373,-0.00622661364829769,0.0200164628926229,0.00373663020047122,-0.189179875776483,0.105199676741143,0.0980199212285774
299,299,0.0742048005877586,0.141127333770609,0.952685795486266,-0.00776288526709484,0.0202908554222189,0.0037563799312954,-0.136881226606903,0.0268253770401785,0.0694634541517614
300,300,0.0741760207759805,0.14135256853416,0.952644605549052,-0.00895673151955468,0.0206388628860186,0.00280003395889274,-0.156467573437415,0.0177255182245628,-0.0130202264757224
301,301,0.0741360663200749,0.141635592916175,0.95258710936516,-0.0103613942382579,0.0213304143333543,0.000769727028000475,-0.184530585447764,-0.0271602886714176,-0.0799227711525853
302,302,0.0740903960965168,0.141973923275197,0.95251929800351,-0.0124202615815444,0.023054566814832,-0.00210240846582688,-0.140341017781067,-0.0206837870481056,-0.168633868386787
303,303,0.0740355016594331,0.142310637715828,0.952434674687987,-0.0144554520619618,0.0245607487205783,-0.00557591621278341,-0.168399823856526,-0.058508844674055,-0.28022420597265
304,304,0.0739679072774397,0.142588884113229,0.952326816838296,-0.016926123220398,0.024937489421223,-0.00944030627424833,-0.148097822851637,-0.0800691755100199,-0.326288290771876
305,305,0.0738841739688921,0.142751906919401,0.952189392459251,-0.0187616887810307,0.0228090196583146,-0.0134655252039986,-0.179141595658649,-0.0896995246972771,-0.359129078180909
306,306,0.0737927402586514,0.142822538248018,0.952021805121993,-0.0206938175353707,0.0173311777805859,-0.0180534039238959,-0.223722605705162,-0.0925008323713095,-0.426292852928257
307,307,0.0736958406331432,0.142838099490003,0.951829402172174,-0.0228627751773386,0.00912507594491819,-0.0233438364141728,-0.282151219886579,-0.0986533605036919,-0.415318279673508
308,308,0.0735807717621908,0.142763863549239,0.951614772663487,-0.0242886488670195,-0.00129934481117054,-0.0286171981411623,-0.395735828025016,-0.0994327932660532,-0.385244843590356
309,309,0.0734348663619145,0.142565413058289,0.951380367063402,-0.0254878019312809,-0.0129458504812489,-0.0332158573078961,-0.458754945709404,-0.0840553564873677,-0.392727916885829
310,310,0.0732454897693543,0.14220868990397,0.951128456296135,-0.0263625930604827,-0.0253228145787784,-0.036456510608618,-0.441152135038344,-0.0741881220198012,-0.339005318483639
311,311,0.0730299356336641,0.141625021075014,0.950805001381609,-0.0286947433442879,-0.0402369622579849,-0.0388491075533184,-0.34018591843628,-0.0340908215833415,-0.285366115846811
312,312,0.0727965514689472,0.140837463447422,0.95040972677936,-0.0314732623974596,-0.0576622434183049,-0.0408886619455825,-0.235494038148835,-0.0466866632907404,-0.161321395693972
313,313,0.0725192712233609,0.139949971581382,0.950025014597614,-0.0347857358028793,-0.0742140884191683,-0.0422485494737371,-0.174986463351172,-0.0706907489469187,-0.0315712351315253
314,314,0.0721720363574314,0.139066628659887,0.949732723228997,-0.038165867525799,-0.0873097083836526,-0.041978318285793,-0.0617559992466503,-0.181650346125374,0.156201588328612
315,315,0.0717288310041648,0.138291604021907,0.94961418021347,-0.0419244237258649,-0.0949368358129687,-0.0392193393843357,0.0640470125740352,-0.260741097790592,0.301212444926398
316,316,0.0711474331298967,0.137590630587088,0.949709181102608,-0.0457692340240174,-0.0967971797904063,-0.0331230092923136,0.134660818057615,-0.298451616984611,0.528839948864211
317,317,0.0704450093822902,0.136895136600554,0.949963828250932,-0.0494641908839478,-0.0947212231650805,-0.0239274089834775,0.128330076821229,-0.450347864816339,0.63431906601653
318,318,0.0696847857411415,0.136257742444692,0.950317979925957,-0.0519506467454132,-0.0912306161231165,-0.0129853342853947,0.154898363424101,-0.613588794485142,0.755150315839543
319,319,0.0689301559332918,0.135730852083155,0.950710766632309,-0.0537461108293461,-0.0883091793987238,-0.00163482224473697,0.227576268834511,-0.682548183244701,0.967673836621386
320,320,0.0682446779748903,0.135366626456126,0.951080616391181,-0.0531597049603798,-0.0851801262898074,0.00857489953105673,0.181702075066337,-0.761945229315151,1.01878181875511
321,321,0.067614172902168,0.135218868991079,0.951441292019267,-0.0495819865077033,-0.0787409951708716,0.0183080990868872,0.213632412588642,-0.940903424405658,0.969184843248229
322,322,0.066996478563467,0.135253182393597,0.951832546935243,-0.0438264268345689,-0.0694332802613042,0.0285600432745967,0.175944393904983,-1.05838328319782,0.91902130990931
323,323,0.0664132961144139,0.135389009012714,0.952231138715996,-0.0371522292055828,-0.0601601296473864,0.038181213800399,0.181516735499853,-1.02888028786452,0.782870548750191
324,324,0.0658863548520339,0.135545499730241,0.952613669815438,-0.0303496898032631,-0.0524716356457593,0.0459966901456257,0.10408712242559,-0.937182923838036,0.570544515216863
325,325,0.0654374113014012,0.135641562742936,0.952956668858019,-0.0247853503480769,-0.0464341219948361,0.0506486790124603,0.0572041190304852,-0.844238124560687,0.323987158618259
326,326,0.0650856717041332,0.135712396935378,0.953262848667333,-0.0203447296521792,-0.0411538396366918,0.0517906011010993,-0.0506325933005594,-0.780077560934539,0.0829284511420387
327,327,0.0648167847767813,0.135811734168657,0.953546541421933,-0.0169102685809026,-0.0370763850293912,0.0502820793563358,-0.0119853752973417,-0.620294101791044,-0.0445306643505924
328,328,0.0646022013074046,0.135886119707498,0.953801867210986,-0.0141399770645443,-0.0340436983315114,0.0468040750906926,0.0500750567097405,-0.517799473732378,-0.223474083229238
329,329,0.0644134096397356,0.135882057923941,0.954023178521163,-0.012136277122955,-0.0322211493417081,0.0420329448915293,0.0609399895069047,-0.458752101213398,-0.436831298501168
330,330,0.0642219473187499,0.135746005970799,0.95420504470765,-0.011196404174923,-0.0327189526680658,0.03671461014097,0.113810746386556,-0.317992817570517,-0.64015557490698
331,331,0.064042486949844,0.135466293300572,0.954350515326074,-0.0120140258406896,-0.0350113305833516,0.030043818226016,0.155974241328595,-0.304660738660257,-0.737837577745352
332,332,0.0638941648482987,0.135078334416658,0.954463082313604,-0.0135036833096366,-0.0389494790946645,0.0215321186073189,0.147276339086057,-0.238092995764561,-0.811911877506148
333,333,0.0637551891955849,0.134599167865931,0.954538149598254,-0.0153190241304185,-0.0439988912437092,0.01229207911303,0.16393059031778,-0.253186448999958,-0.816818162129087
334,334,0.0636036749719527,0.134045827720843,0.954571157662639,-0.0173870945795459,-0.049379958537873,0.00353637346614294,0.139422462307528,-0.316325467083979,-0.784845384716351
335,335,0.0634176498761702,0.133435364152532,0.954557585104401,-0.0195181559764315,-0.0535852149665846,-0.00386111908621972,0.220753328411176,-0.387399153166857,-0.669796821752692
336,336,0.0631952596730001,0.132761717439895,0.954497448831071,-0.0212599431404292,-0.056911916656635,-0.00958725768436169,0.179462876961287,-0.484852925696899,-0.545130000852579
337,337,0.0629509935180211,0.132013336587147,0.954394356208812,-0.0226745195031467,-0.0602837924311346,-0.0143925944882211,0.163721424876788,-0.499965089685883,-0.485712143046911
338,338,0.0626873352158969,0.131199184939134,0.954249136028687,-0.0232951529777034,-0.0642775769988811,-0.0182671192238821,0.111305194217663,-0.448454597768466,-0.406376235470289
339,339,0.0624067766994368,0.130328404102933,0.954062471737608,-0.0239848737766655,-0.0674752044978462,-0.0215740168160348,0.100314313539201,-0.454167114233935,-0.362297063045228
340,340,0.0621118358592215,0.129410315784678,0.953834863537025,-0.0248772594798247,-0.0699022022507529,-0.0246013133579366,0.0654842646802831,-0.35564081463455,-0.272290703217317
341,341,0.0618082518782636,0.128460754598413,0.953559960194712,-0.0255260308336787,-0.0716760171255653,-0.0274581712244398,0.0470972902663655,-0.326172540673416,-0.273861228420146
342,342,0.0614941982221717,0.127474222679997,0.9532381063131,-0.0262248653455124,-0.0734278208542116,-0.0300708571393769,0.0579383484350925,-0.181929320061803,-0.242638265281986
343,343,0.0611609214289421,0.126427906283018,0.952879720991245,-0.0265284887730863,-0.0757429912593776,-0.0321625677078467,-0.0794653043275157,-0.0392131860045555,-0.239336938340287
344,344,0.0607997050815219,0.12529857354981,0.952495228925092,-0.0282253776204122,-0.0792253448696379,-0.0335694023244241,-0.0563152545852226,0.12311786777184,-0.200942060573545
345,345,0.0604018084141334,0.124062530105985,0.952095070355675,-0.0306332771916853,-0.0835324359649938,-0.0340139515977891,-0.175213511669182,0.323632984636629,-0.143643642964263
346,346,0.0599440405275044,0.122670948224213,0.95161970364494,-0.0345547449795261,-0.0897893041289222,-0.0326360370960074,-0.323730401063908,0.0283766569693056,-0.0488437067397708
347,347,0.0594319081241821,0.121139271999451,0.951063623702271,-0.039703590364205,-0.0971054579715496,-0.032877529324785,-0.186134221419316,-0.041455643844668,-0.279137152368047
348,348,0.0588998125386497,0.119539995468585,0.950517891225197,-0.0479871070643393,-0.107219040943636,-0.0312546050013063,-0.289142439534874,-0.102136117218846,0.321584550636926
349,349,0.0583824490650638,0.117945827410109,0.950072842113315,-0.0545101916468277,-0.118912363133742,-0.026993624451277,-0.186419595040692,-0.175738051502774,0.511480742908506
350,350,0.0579148257717167,0.116429704540324,0.949818050526833,-0.0582869012255139,-0.12767869549244,-0.0190117669669309,-0.124643687696673,-0.109257395015125,0.798565099674911
351,351,0.0574797012772154,0.114908187608039,0.949812665376836,-0.0593970970897444,-0.129525058436316,-0.00414200210145625,-0.237284772717086,-0.0632097804575844,1.06537641148607
352,352,0.0570539113919757,0.113332971382326,0.949997376458807,-0.0579730539888464,-0.12578267959595,0.0173611504781522,-0.439067227148711,-0.0526834043789802,1.32857719899577
353,353,0.0566638503324475,0.111829619901373,0.950282797168512,-0.0579914907360436,-0.116734849063106,0.0403421342273982,-0.45028568223925,-0.0324783227742928,1.81037990728052
354,354,0.056335960906764,0.11052335680273,0.950578642182932,-0.0564411516141094,-0.106639242342749,0.059466960936768,-0.312262386575922,0.0810348109608388,2.19278970052347
355,355,0.0560966687980665,0.109539006910371,0.95079412693431,-0.0506658890165855,-0.0981276589455995,0.0701459307903253,-0.41889085339131,0.396316602398233,2.08853963589635
356,356,0.055893715520856,0.10894587199185,0.950957999687707,-0.0378864216465279,-0.0880549383962351,0.0709384421038621,-0.683912146602039,0.892371516702299,1.17197773510146
357,357,0.0557094245585008,0.108659674768977,0.951130285219648,-0.0211188219877017,-0.0722192100675438,0.0648126750074639,-0.895122793538877,0.960241325656652,0.244008688946509
358,358,0.055621973873917,0.108574871862754,0.95126815501717,-0.00569966394590907,-0.0543010193617873,0.0539774002533713,-1.08555835621969,0.531375516205942,-0.615354250488285
359,359,0.055709575186332,0.108586501062407,0.951329712997154,0.00231653782303576,-0.0375382352011421,0.0403600580060097,-0.820236923787144,0.123308282213142,-1.25974665171144
360,360,0.0560505350286729,0.108590265389975,0.951273811350234,0.00291302226516311,-0.0250832467832073,0.0264715871403778,-0.59726208210548,-0.511129958826919,-1.7958576601388
361,361,0.0568865103678096,0.108679840400934,0.951027996026256,-0.00274472347238454,-0.0198565794024587,0.00941016857931543,0.329477075718626,-0.725473119146991,-2.29326064742635
362,362,0.0581646246112111,0.108924951190903,0.95062614628945,-0.0107337725173414,-0.0159760996032332,-0.0122007682372987,0.473192956084423,-0.830798380087246,-2.63134542863033
363,363,0.0595216310978564,0.10918608533634,0.95018427075567,-0.0203136652998511,-0.0110027664519589,-0.0335142889094516,0.366452244589466,-0.876936603705563,-2.34756143518455
364,364,0.0605946718305982,0.109323904261577,0.949813622769905,-0.0294492523942823,-0.00648637770667769,-0.0503031416504709,0.309308899692666,-0.654825306127513,-1.62974249393807
365,365,0.0610213356649167,0.109199239886321,0.949620663980155,-0.0299202467983118,-0.00395637414831796,-0.0598680530549839,0.499575841156347,-0.399661279925899,-0.781500081766491
366,366,0.0605692389916798,0.108740642316638,0.94961935489374,-0.0300885758818188,-0.00609509605614002,-0.0575349995009911,0.774819171200479,-0.0648563879795681,-0.430489562672991
367,367,0.0594796310533057,0.108041641682866,0.949734755098527,-0.0312749377597687,-0.0131500035389548,-0.0450347685275517,0.826789951512394,0.370760591737423,0.126682834424652
368,368,0.0581011992788174,0.107211007995853,0.949937432768305,-0.03080917050558,-0.0241956800322138,-0.027227826264615,0.951877358195784,0.692725585964058,0.802455874248447
369,369,0.0567832097909216,0.106357734120197,0.950198557237098,-0.0287763157364687,-0.0325226163597268,-0.00863261496045864,0.678513663087649,1.04832169437821,1.48990688798608
370,370,0.0558755648332595,0.105590894884705,0.950489784931067,-0.0217656658482501,-0.0356997035290809,0.00508579201037356,0.661673910065588,1.49701994011513,2.02177290867493
371,371,0.055453710560492,0.104917004809332,0.950832038867418,-0.00752087227521027,-0.0320410981491306,0.0136165792164389,0.513134308779334,1.93190957514266,1.8161095669016
372,372,0.0552854078161361,0.104265517203563,0.951242904974668,0.010188102955666,-0.0221799097245118,0.0198520527703769,0.560508819331343,1.99505368277251,0.821826149288482
373,373,0.0552593489170334,0.10362795578367,0.951688933163854,0.0249710188269331,-0.0119269095390241,0.0242058870915335,0.790937401369721,1.95338915169763,-0.123769613700602
374,374,0.0552639586364785,0.102993522286037,0.952136210761627,0.0334747180468716,-0.00446260397291638,0.026982159689386,0.924500132689623,1.7946341426342,-0.556229211442915
375,375,0.0551874328969384,0.102349723707705,0.952550472771432,0.0337779975631613,-0.00335316394015458,0.0285280004544165,0.633413990198877,1.57716958843226,-0.877588125479629
376,376,0.0550118941313558,0.101660004738046,0.952950460579571,0.0224385396083335,-0.00906458533071454,0.0285971280297703,0.589587088879722,1.23243906437065,-0.820004972390324
377,377,0.054812222371826,0.10093025782662,0.953357121898942,0.00340307564943076,-0.0199939869972529,0.0271027660763896,0.523899467020642,0.936911292005999,-0.645025579756528
378,378,0.0546155434823767,0.100211737765026,0.953739600792318,-0.0175494847322539,-0.0312502925496073,0.024681773600427,0.390992815727818,0.663649908668564,-0.448461441729183
379,379,0.0544490331774689,0.0995561956106508,0.954067486958539,-0.0326221975783113,-0.0399444618103384,0.0218257560148055,0.193444513219868,0.511611097389334,-0.25614173498785
380,380,0.0543399864650063,0.0990153729596365,0.954310819898679,-0.0355613927101437,-0.0419911066965898,0.0192158459942787,0.0437373055952127,0.326717338359909,-0.109717673905513
381,381,0.0542459328321987,0.0985235731283834,0.954465318781187,-0.0261149643740459,-0.0367366708888728,0.0164911228301793,-0.107029384099406,0.167049013848209,-0.182169434658872
382,382,0.0541490504701477,0.0980467006861979,0.954551166860404,-0.00930454387287146,-0.0280799670636527,0.0129242502768005,-0.0903040821821174,0.0659224655871857,-0.322678966608663
383,383,0.0541134424383041,0.0976838753284961,0.954575324696078,0.00895633474199984,-0.0161818455668416,0.00870397439167115,0.0609307751375207,0.0790217909716714,-0.359011661497738
384,384,0.054202858806232,0.0975343751430006,0.954544666472216,0.0260978353086371,-0.0034177964271155,0.00406459007836758,0.00893849339256322,0.23419398945892,-0.434105044165146
385,385,0.0544806705900151,0.0976974561558965,0.9544661219139,0.0376149057025182,0.00872872818346991,-0.000677678916577311,0.0596768950728589,0.51965494870106,-0.424705605941349
386,386,0.0550214203991576,0.0982638581183572,0.954327628286109,0.0448845174855749,0.023279414579109,-0.00535507813428798,0.180220269133871,0.789265702384846,-0.42585939361884
387,387,0.0557822868832892,0.0991675124602659,0.954126399697476,0.050787624814242,0.0412761181593289,-0.00985114462631639,0.330018476752429,1.0147434658096,-0.422265636305088
388,388,0.05665039762432,0.100272028446671,0.953883265562229,0.0548620281560326,0.0606808514854476,-0.0140826264449777,0.470025374770637,1.11209160763893,-0.376461976325312
389,389,0.0575129238764733,0.101440760304043,0.953618456963353,0.0572402075384865,0.0782802318180736,-0.0177595839508802,0.457497202164544,1.1436801233063,-0.334993272155161
390,390,0.0582570394191326,0.10253689109631,0.953351336604059,0.0577832938408038,0.0922236201231628,-0.0207598029764069,0.257607043546486,1.02880275636436,-0.349900510206869
391,391,0.0588855534647392,0.103551585079909,0.953079434990092,0.0551764582299095,0.100117080548708,-0.0228873030721332,0.149217429341582,1.0627692055092,-0.225412223643377
392,392,0.0594727224135429,0.104574050220541,0.952792016947971,0.0507250238723421,0.102903539030177,-0.0245538403536347,-0.0747021823124529,0.946698092452251,-0.0810311720755836
393,393,0.0600133322756847,0.105615196097999,0.952494052123319,0.0444789068729618,0.101724909069371,-0.0255419252476906,-0.278763993063148,0.806802187172902,-0.000388106703685968
394,394,0.0605028860443653,0.106687165511506,0.952188719991752,0.0383593999252935,0.101325512080949,-0.0258975536404026,-0.538721626079016,0.470503886536865,0.110186126794614
395,395,0.0609375721408133,0.107803413221155,0.951877473380948,0.0353202796706916,0.103376661711871,-0.0253070054000488,-0.615233310308602,0.532038879164673,-0.0891439197082904
396,396,0.0612963428769518,0.108956739724685,0.951522376291158,0.0300650587307234,0.106818056863368,-0.0257322074923246,-0.727341890675263,0.313541208140347,-0.148755300080857
397,397,0.0615824142850859,0.110138813927641,0.951120579844242,0.0233898586981618,0.110909844823561,-0.0270871011220084,-0.610597852919159,0.269771364623139,-0.0096352789136041
398,398,0.0618287348570382,0.111362113866531,0.950725345303317,0.0206025140548398,0.116512555176174,-0.0286381748895966,-0.349291905065368,0.22452807057821,0.0192607070463424
399,399,0.0620681068768904,0.112639040186527,0.950390158194515,0.020492690415402,0.123337353392258,-0.0291716125386101,-0.300377929558993,0.0357080348192454,0.0235467499280111
400,400,0.062333210174079,0.113981928483425,0.950168721133905,0.021776871498597,0.126855464684258,-0.0272927469926788,-0.0805582164925767,0.0344241950285601,0.204249945740886
401,401,0.0626631758405911,0.115452057495568,0.950106056666826,0.0226044446487347,0.128766378262066,-0.0215412919641623,0.20424165199901,-0.146043797541297,0.255049601986312
402,402,0.0630367314489914,0.117040863900409,0.950166423456176,0.0232279610815839,0.13080975461678,-0.0123122532533759,0.28035826402291,-0.157353680122317,0.32801175197696
403,403,0.0633957703956572,0.11865639314796,0.950282055974742,0.0223362820639449,0.131734838587559,-0.0025579365302197,0.288874035082909,-0.0162370946260468,0.701999348898234
404,404,0.0636818058556436,0.120207525297413,0.950384261298878,0.0173019250723677,0.133120291559169,0.00625502072440725,0.345617225015697,-0.0500940606848538,1.16610403550715
405,405,0.0638359406491799,0.121603844489865,0.950403616816348,0.0151678697510859,0.135682604566354,0.0123649370835932,-0.0601071558818767,-0.578559606175293,0.873203182656042
406,406,0.0638176818190783,0.122816749696811,0.950334762430117,0.0165140720100995,0.1337964017861,0.0150773633195002,-0.602014604337597,-0.772063412892725,0.262195369361739
407,407,0.0636659872803366,0.123907748881829,0.950223248212433,0.0161090724192983,0.125361786778699,0.0152896011981387,-0.503474493951779,-0.526934567144305,0.0830572321070471
408,408,0.0634410077035798,0.124921550602918,0.950076307476033,0.0119371575293809,0.114239840605781,0.013836215207013,-0.366867247821744,-0.323286282807648,-0.00844134753337327
409,409,0.0632029859306312,0.125902571294468,0.949901399164269,0.00466804315957249,0.105213370543591,0.0117672216937349,-0.210746603270374,-0.149176558403331,-0.0566291781536865
410,410,0.0630122292471952,0.126895030032085,0.949705983673582,-0.00249541680830049,0.101663045792137,0.0104821187972897,-0.090868705739682,0.0813911302287134,-0.151264507516431
411,411,0.0628421659484219,0.127894483574661,0.949437546497279,-0.00867577584547164,0.104518896797817,0.00963965688325665,0.073818799290355,0.365498266699012,-0.193808943501548
412,412,0.0626525476835676,0.128871203459961,0.949092736898339,-0.0174564641507492,0.110411146281413,0.00810071040836776,0.279383125570241,0.611049624789417,-0.143429544184966
413,413,0.0624831254838678,0.129831241798523,0.948752500411146,-0.0263433915914313,0.115430081988768,0.00682494462973452,0.0841792549496097,0.710948547217771,0.238005560630385
414,414,0.0623735708141403,0.130780623096083,0.948497252536997,-0.0287991888468219,0.117064192811235,0.00735118228870769,-0.447736375467156,0.716988601381981,0.538719445527029
415,415,0.0623635106201783,0.131725348080286,0.948406798717411,-0.0235561967089838,0.115264436950509,0.0104251308440442,-0.711206721208875,0.414311416353942,0.677866006317427
416,416,0.0624616395538643,0.132691692109803,0.948509939856648,-0.0110109990104424,0.11299792544639,0.0168943383769284,-0.664432509463189,-0.0136795261994506,0.699481902571377
417,417,0.0626411532033034,0.133674782290164,0.948754348952246,0.00463450905764387,0.110005059367909,0.026340670893958,-0.208790009135179,-0.41500516791265,0.7015846283701
418,418,0.0628885554355016,0.134634294163552,0.949097220220879,0.0198014854415726,0.101279944336358,0.03682754014626,0.271289695660746,-0.416245822921852,0.663101169866211
419,419,0.0631905525888671,0.1355305515708,0.949495124522685,0.0306917771843688,0.0880755584259743,0.0461957220164906,0.562317528184904,-0.445067491959181,0.866212359038071
420,420,0.0635340680731761,0.136324540943693,0.949904019938801,0.0374710953010621,0.0742684659448292,0.0528950066467091,0.607391316632149,-0.741011522141788,0.983026610990399
421,421,0.0639559642732117,0.136976073694445,0.950341134252206,0.0434087098244962,0.0606499417385055,0.0575901989586466,0.497738550730115,-0.963635138750383,0.881552993271625
422,422,0.0644650944981379,0.137511696603547,0.950835465666828,0.0507469284941566,0.0468285957716479,0.0615316889581675,0.318021738041541,-1.1332620931068,0.576438752422206
423,423,0.0650065779001553,0.137992993762005,0.951359837316048,0.0596311540149377,0.0352580216513999,0.0641976255340109,0.183997536190096,-1.30348848002426,0.180840870790991
424,424,0.0655255975279469,0.138481574907669,0.951886605529848,0.0689689695535322,0.0266857462327362,0.0650028722664248,0.0715805801767147,-1.31029423689596,-0.225388347138224
425,425,0.065967384900494,0.139039026375202,0.952387715455518,0.0760020457119277,0.0223617514668984,0.0633358232233461,0.0103040434613621,-1.29172034912492,-0.587422233272038
426,426,0.0662986761655721,0.139693165229909,0.952874800626838,0.0779594289378155,0.0231848298075179,0.0579125926133648,0.0723648733927507,-1.18304440005428,-0.883531146148059
427,427,0.066556278633583,0.140403355776208,0.953365370029521,0.0737067320117452,0.0271141920394755,0.0490223019486426,0.33967256107291,-0.950538697874619,-0.9924221835278
428,428,0.0667905171850333,0.141128239192432,0.953839870318554,0.0670599008451941,0.033997696826742,0.0385179217885062,0.496841553931919,-0.776350143597103,-1.01021585449922
429,429,0.0670516847308006,0.141826196908405,0.95427873788688,0.0614616327114856,0.0410366361762038,0.0282093423947882,0.541326041446717,-0.65216302410608,-0.881579903281166
430,430,0.0673900502691944,0.142455424255434,0.954662487282798,0.0593469783093305,0.0448287916293221,0.0198371844948528,0.624940514537443,-0.517210731602612,-0.72600936541553
431,431,0.0677960827020695,0.143073681633561,0.955002253631735,0.0627902965781747,0.0437073372962498,0.0139536064320745,0.683411654087269,-0.303268552434453,-0.579525478214435
432,432,0.0682364063592833,0.143708401760699,0.95531071551963,0.0697666311925189,0.0404763004964247,0.00928567113914938,0.728298519452188,-0.101799950874951,-0.520065475264166
433,433,0.0687254736627422,0.144272285657703,0.955570656381292,0.0783445490967677,0.0353490859493572,0.00506715904089909,0.753157339852286,0.0919704531875295,-0.537359887131313
434,434,0.0692776687263921,0.14467820922176,0.955764632817855,0.0870051865492474,0.0284637059099512,0.000559678586363476,0.654104779355623,0.130935713713619,-0.684491975154086
435,435,0.0699073043043577,0.144839295443164,0.955875035203228,0.0937432670126065,0.0204854938271558,-0.00495832774380481,0.603009323675767,0.0733966228080451,-0.772359259384275
436,436,0.0706512262326991,0.144696382588028,0.955893741836784,0.0990131059523537,0.0090685373395763,-0.0117719191321204,0.459919110561633,-0.0678551670194075,-0.833174013505229
437,437,0.0714997794057957,0.144307793145635,0.955832991559809,0.104707919531111,-0.00570482531612422,-0.0192314328348813,0.27683007264535,-0.268795610371534,-0.848374847248258
438,438,0.0723975050812161,0.143763009255718,0.955705544141382,0.109648571959266,-0.0218788803964448,-0.0266386552032009,0.152327164530954,-0.505150359860933,-0.842610140787639
439,439,0.0732889448199634,0.143151274743389,0.95552383715158,0.113917841174956,-0.0373924664507906,-0.0332312046632204,0.0408480044965431,-0.76204101676966,-0.739711944072285
440,440,0.0741186349571479,0.14256149691964,0.955299868343095,0.116140585444002,-0.0501307274150738,-0.0384541494969151,-0.02556524109563,-0.895325048563844,-0.649577602250922
441,441,0.0748942340416503,0.142014496462148,0.955021700138023,0.116413272809361,-0.0598002103660963,-0.0421405049488734,-0.0328429501121701,-0.995593770218285,-0.540574271597568
442,442,0.075652520046765,0.141451009376563,0.954682206477821,0.114227627356605,-0.0679976491851977,-0.0448462432246074,0.00671206751396171,-0.906549909233843,-0.369997319566888
443,443,0.0763817444156078,0.140839485923537,0.95429999843255,0.109877833966245,-0.0752176387833324,-0.0467603065458374,-0.000598317611553246,-0.774704721219552,-0.203704833613752
444,444,0.0770702157800203,0.140148341229655,0.953893245837104,0.10452776048677,-0.0818657264757467,-0.0480848877457812,-0.107642981764484,-0.633016852565366,-0.116748419832329
445,445,0.077706307226454,0.139345996040595,0.953479603079944,0.0993071063197261,-0.0875904752660491,-0.0492346312342052,-0.166573625841251,-0.530011604911749,-0.109020589910125
446,446,0.0782829031153709,0.138419128328655,0.953040108271534,0.0937906144747484,-0.0927415634843163,-0.0506133929915993,-0.240705843377675,-0.432264138214512,-0.117657618386215
447,447,0.0788076313604226,0.137388590290506,0.952563235786246,0.0868845108100865,-0.0970896405612365,-0.0521221725780515,-0.334969924767783,-0.332131944811486,-0.110719634318051
448,448,0.0792910926295762,0.136274260062962,0.952077244339544,0.0788050240971023,-0.100816257466893,-0.0530657843294982,-0.273721960231204,-0.252708311059456,-0.0861574764318822
449,449,0.0797439907991111,0.135096237154427,0.951610162612879,0.070944564035812,-0.106254630527567,-0.0526366943609429,-0.262773553992729,-0.180472394655218,0.00455078817650393
450,450,0.0801771426093402,0.133874831936195,0.951189777625657,0.0630471752012848,-0.112316439079506,-0.0501163172755437,-0.130727315754099,-0.107645987620694,0.120030026815624
451,451,0.0805963166373945,0.132584007651815,0.95077049014361,0.0555192237998017,-0.119423193690927,-0.0450509001646599,-0.140432121066484,-0.0617084383439121,0.698617483574847
452,452,0.0809944429788649,0.131210758891668,0.95033366136872,0.0486583759270647,-0.126042559073452,-0.0372000927414814,0.0812025800052364,-0.390483952607514,0.216264451155836
453,453,0.0813632500536243,0.129795002172474,0.949947223031169,0.0423242414833161,-0.132044562933716,-0.0294086169212084,0.0899511098216303,-0.36586226633304,0.767303805464932
454,454,0.0816945561845991,0.128376471843202,0.949678915015044,0.0359882864292838,-0.137879624334525,-0.0206442169201589,-0.0106206414202654,-0.505002925223987,0.842259701075877
455,455,0.0819802381774409,0.126994674717286,0.949596289834357,0.0311136876574266,-0.141340668695974,-0.012101406029006,0.0316441790508875,-0.557376285564054,0.927045798835517
456,456,0.082207605495863,0.125615206520337,0.949774997199359,0.0279926767860602,-0.142501353122685,-0.0025126160764563,-0.0915464733856558,-0.543237545069435,0.013594372130752
457,457,0.0823825617387752,0.1242119482117,0.950169743342145,0.0247989904872139,-0.141521042554705,0.0093018971794822,-0.0201676788007626,-0.476175040242939,-0.360352749363247
458,458,0.0825246965980899,0.122836245309861,0.950666267343266,0.0192848139402032,-0.139910490166291,0.0208286300993286,-0.0146267652931554,-0.499269561736326,-0.18635166033504
459,459,0.0826532987175211,0.121538904327941,0.951149967533999,0.0140609794137144,-0.137180982913967,0.0301036962275621,-0.181370493856678,-0.547839573017949,0.127433562748166
460,460,0.0827873697413437,0.120370284433963,0.951506053346059,0.0104377772354468,-0.135345280899794,0.0349874581810818,-0.391362225634787,-0.782528491223203,0.783868105454951
461,461,0.0828800360385014,0.119371531971297,0.951758801629173,0.00852325366121002,-0.135467834682069,0.0351243320313233,-0.601545702330548,-0.530073895282577,0.399113398797895
462,462,0.0829183291630233,0.118508025994392,0.951983893313981,0.00847056786544436,-0.136159969985784,0.031719149595269,-0.633897981121531,-0.363433007525429,0.0647459414129166
463,463,0.0829719945991054,0.11771631124207,0.952144432503815,0.00983072152947568,-0.134896932652867,0.0255651153997614,-0.675385514659617,-0.328522324556937,-0.371751674214805
464,464,0.0831108356062477,0.116932965078422,0.952204548365817,0.0106820335307246,-0.131787603318647,0.0174376550767744,-0.768891879967348,-0.334035437599972,-0.771257897620077
465,465,0.0834046984391562,0.116094635038627,0.952129665521499,0.00861968531655477,-0.128148014565391,0.00822175333206223,-0.781204126053174,-0.371427826864448,-0.951338633629846
466,466,0.0839797024391919,0.115096318876328,0.951881207535457,0.0103297316184986,-0.127064023042571,-0.00460355315196777,-0.648926905463086,-0.314320300019435,-1.18796982843588
467,467,0.0847891852774331,0.11397986808609,0.951487396118565,0.0106581561108338,-0.125986848445608,-0.0208660095133188,-0.466724573908358,-0.513244798219759,-1.21100425604338
468,468,0.0856437197414412,0.112902347441704,0.951013927518194,0.0085827571676264,-0.123859706843777,-0.0369588147385311,-0.449527141529678,-0.6016912507213,-1.20429301583502
469,469,0.0863536394176214,0.112020695983875,0.950524310073586,0.00601625769372474,-0.119021107066577,-0.0500652282838018,-0.535127853624816,-0.686225365192084,-1.03453128511446
470,470,0.0867290112295712,0.111491689524799,0.950079488372612,0.00759820411799576,-0.108411760821479,-0.0581325347202247,-0.64090260178904,-0.661611180571788,-0.767921124905039
471,471,0.0866665523572353,0.111482449181043,0.949631890893377,0.00466287806951447,-0.0881967522406176,-0.0606942088560769,-0.363460140692794,-0.461789749591467,-0.977174600902543
472,472,0.0862912001914816,0.111887072732823,0.949143716899594,-0.00728816663595087,-0.0571790333215332,-0.0596173686465791,-0.101352848488571,-0.155522971151318,-1.0034271075784
473,473,0.0857559282062076,0.112454500666287,0.948686185575495,-0.0253807513369918,-0.0209661223119147,-0.0556481057387483,0.21780604539394,0.135409167668376,-0.681377549063173
474,474,0.0852150392043099,0.112936170231736,0.948327155625971,-0.0416027729585748,0.0133264009465298,-0.0495484022184402,0.401614087020554,0.358058031190386,0.010116299091171
475,475,0.0848242963868075,0.113085579868547,0.948131385540051,-0.0465191743605202,0.0371382595208829,-0.0416662995020432,0.501933965118927,0.561200380659148,1.0726453969493
476,476,0.084563562446473,0.112880913432987,0.94811701772795,-0.0313515511996939,0.0406332680865493,-0.0301526360151368,0.603091184550978,1.37716988603357,1.32685618678841
477,477,0.0843301388976219,0.112490760599407,0.94823646295885,-0.00267664592219678,0.0282159622000985,-0.0139707501854436,0.755857931992742,1.93538465336924,1.33296035534968
478,478,0.084156881759196,0.111953276439571,0.948454293728968,0.027189181383869,0.00782411832067726,0.0041571821590485,0.81107605189647,2.2243004364255,1.13723276100082
479,479,0.0840767613366928,0.11130452730677,0.948735387801996,0.0523152135850641,-0.0118586613343242,0.0203967179995043,1.08963888466247,2.05874522492037,0.894138006711621
480,480,0.0841229121960834,0.11057907030954,0.949044859672932,0.0668369526296083,-0.024673892083269,0.0323254822095327,1.22817092657399,1.7628979012856,0.612273470716527
481,481,0.0843503767808537,0.109702363030034,0.949420827046133,0.0717639389032614,-0.0324478384226839,0.0400517774987993,1.21823672305698,1.52024378139591,0.379135094807964
482,482,0.0847380517533443,0.108649890485214,0.949884412272138,0.0719525969380484,-0.0386268176467943,0.0454849964911333,0.989951069219151,1.21982151493311,0.195179204681627
483,483,0.0852043952749471,0.107530264531187,0.950375745456017,0.0694432008179255,-0.0447419955301445,0.0488066268455047,0.6377512148873,1.040740939446,0.0662111153049481
484,484,0.0856673355889934,0.106452006902761,0.950835269686212,0.0668493849222608,-0.0499519375128073,0.0499376452483636,0.281601161935631,0.761922310956246,-0.0547302619723158
485,485,0.0860444954192623,0.105523667573592,0.951203671233704,0.0670999783033527,-0.054249849781404,0.0489285842208357,-0.0447451768347755,0.524413314874686,-0.221079577745278
486,486,0.0862625445591505,0.104704101180906,0.951492634710883,0.0692750452749216,-0.0576784013983086,0.045098032318097,-0.208748068022873,0.386961971452078,-0.356033403361809
487,487,0.0863759957040058,0.103920504417352,0.951741297144514,0.070904637329715,-0.0597418648315046,0.0385090404608752,-0.358773789581534,0.303990698170631,-0.454815967744722
488,488,0.086494371126124,0.103234433185517,0.951931840423045,0.0742742233994765,-0.0599121556989497,0.0300784728867968,-0.435647188195192,0.301798434065971,-0.625350569993155
489,489,0.0867273095593608,0.102707924799905,0.952046620815049,0.0784541475170691,-0.0561372631398853,0.0211107052983459,-0.399863793999433,0.278204610668686,-0.739258272717207
490,490,0.0871844236871548,0.102403057950059,0.952068191474416,0.0821238777406985,-0.0479675945923253,0.0125107119502955,-0.284808522938651,0.361447691289156,-0.823871503075086
491,491,0.0879566684722572,0.102328627948526,0.95198911571971,0.0857395054071394,-0.0340108886881962,0.00359978852733473,-0.202098155617025,0.505519416527358,-0.93244826805737
492,492,0.0889709547976085,0.102444384491118,0.951821874050435,0.0875108338177745,-0.0155345585979518,-0.00617522552554817,-0.035482538440038,0.662080428696206,-0.921314134032927
493,493,0.0900906892188742,0.102738212479189,0.951579118639906,0.0882763560687566,0.00450313072406261,-0.0161951261027894,0.106740826807988,0.876694590834522,-0.827216829069239
494,494,0.0911791981820017,0.103197521796905,0.951273576163357,0.0878136671820452,0.0229409656270933,-0.0252707331662463,0.217105529209564,0.924905212815272,-0.862985263156605
495,495,0.0920997474564677,0.103809137849609,0.950918037421826,0.0855014573607988,0.0380504601159588,-0.0322627492711162,0.247669798428412,0.916123673045458,-0.705955856738726
496,496,0.0928419142547383,0.104669259389368,0.950469287487841,0.0803898543052857,0.0508671122302899,-0.037438625670762,0.329262000541426,0.80859855686325,-0.579754389563258
497,497,0.0934961874528762,0.105785101970926,0.9499213552076,0.0731842576841473,0.0631487801480719,-0.0411042754159456,0.305426347360358,0.719001466047872,-0.442967852830494
498,498,0.094077449075634,0.107009665699308,0.949342001865152,0.0642053684094599,0.0740279945500001,-0.0426637778112958,-0.0438843621021387,0.437709157311678,0.17380006284908
499,499,0.0946009064424291,0.108196502519982,0.948797452897333,0.0530108287112759,0.0820554870687225,-0.0409936127210732,-0.108369710892388,0.40512459658857,-0.3626691480083
500,500,0.0950820293017782,0.109199983667084,0.948352283526507,0.0421356884206493,0.0866419412622885,-0.0391257914401357,-0.415503806453763,0.209462181106728,0.0807708274399927
501,501,0.0955202655534361,0.109992718696861,0.947986105192118,0.032894560129905,0.085234094716506,-0.0346757504301167,-0.518371583192568,0.105021298539593,0.348864780092505
502,502,0.0959051801187606,0.110670781108034,0.947655234756256,0.0257726965035307,0.0780930423007896,-0.0286434134945751,-0.640647515009715,-1.56706876095064e-05,0.484932139141492
503,503,0.0962377578203246,0.111274702406283,0.947388085999634,0.0214860246778842,0.0682858357004978,-0.0218205201913675,-0.514522355146415,-0.123190270959761,0.675148662367063
504,504,0.096519303359564,0.111845424820944,0.94721295964543,0.0172345035150512,0.0575523794771284,-0.0145349440200273,-0.532957113622459,-0.251558733571219,0.735385506921504
505,505,0.0967514583334813,0.112424318739992,0.947158094541541,0.0118494932038499,0.0484101739619823,-0.00735694618901416,-0.509323002261656,-0.297671773412008,0.866569156450003
506,506,0.0969127051504686,0.113034337847226,0.947278523058863,0.00974263160409811,0.0429721587236424,-0.000188505007375184,-0.506139588340605,-0.350277310963959,0.79569903627015
507,507,0.0970025515860867,0.113648087725055,0.94755525426032,0.00943367285357233,0.0420481253708822,0.00764364853248285,-0.560810512727941,-0.3052933045815,0.670182372911738
508,508,0.0970543086871807,0.114231966438605,0.947905105252143,0.00827803609813714,0.0436173992608043,0.0151710005434073,-0.743920950969915,-0.298060043828362,0.54727200986363
509,509,0.097101134433146,0.114752597046049,0.948244418098545,0.00443729924160946,0.043987366334801,0.0211270707910137,-0.681456994011684,-0.220605953079805,0.484865262288831
510,510,0.0971760095538311,0.115176766545349,0.948489296346806,-0.00151307842238411,0.0430673018334197,0.0244273210718185,-0.744510163183906,-0.0980118330024152,0.462788687704763
511,511,0.0973523348697099,0.115471324150342,0.948632026290126,-0.00501659812985403,0.0392725085843502,0.0236260085755785,-0.733282325710273,-0.0100424413937497,0.241480272075495
512,512,0.0976082658538962,0.115659074971036,0.94872863974682,-0.00668923172128201,0.0341179970458093,0.0196922147451876,-0.696534390800332,-0.0225464547958126,-0.106756149320724
513,513,0.0978337291555444,0.115791072419966,0.948791191980141,-0.00773617943876955,0.0286168825025286,0.0140954115017527,-0.653233738640538,0.0162168774213449,-0.462708974045115
514,514,0.09791856318177,0.11591867147317,0.948831820854025,-0.0110702215401449,0.0244751841377327,0.00826770880225117,-0.438960338470532,0.0857469180593353,-0.543315119843829
515,515,0.0977525532031395,0.116093609903978,0.948862515290985,-0.015669347841534,0.0239848618749287,0.00363359555979197,-0.393546340123819,0.170809828231785,-0.54733449082759
516,516,0.0972420460345687,0.116317098585454,0.948874611765384,-0.0235049278409969,0.0294040831606845,-0.000599363136394772,-0.270463870915405,0.300758384608131,-0.393876125477504
517,517,0.0964604786522091,0.116557037499531,0.948862358274224,-0.0351471147216371,0.0388226076071938,-0.00507901904847025,-0.210886864807896,0.433033547824671,-0.233692100914679
518,518,0.0955482048777184,0.116814670748283,0.948841164056545,-0.0472188369040474,0.0487386805067854,-0.00895457477908705,-0.171283417448352,0.647347565039408,-0.0597734222840017
519,519,0.0946454845078919,0.117089827468968,0.948825251100312,-0.0560893059833274,0.0570416506840144,-0.0111003645692686,-0.15751347919648,0.57391039686216,0.0931133063222611
520,520,0.0938925225349125,0.117380859680768,0.948827585321125,-0.0592214071416812,0.0597229378027558,-0.0103812434582427,-0.323159136725177,0.449023127980338,0.146063696760137
521,521,0.0932754828450601,0.117721588641597,0.948843983883573,-0.0583204986477418,0.0552151177445491,-0.00628415566794783,-0.231600070440178,-0.0345777969204742,-0.466877561679241
522,522,0.0927005612928924,0.11811271639579,0.948866153050127,-0.0549800227604175,0.0448017685412617,0.000503705584183445,-0.0815973657441565,-0.386640979233155,-0.707417330536589
523,523,0.0921880013251392,0.118501162549055,0.948898801834277,-0.0514284610648789,0.0308303671348165,0.00831723304654078,0.262741273186124,-0.712952750915022,-0.513977693784732
524,524,0.0917581368338682,0.118832958213725,0.948945053708619,-0.0481406860083612,0.0160739767159464,0.0156282457253465,0.444422864828575,-1.10915714855906,0.0995650185307473
525,525,0.0914314971135603,0.119053477617848,0.949006675736441,-0.045382225544359,0.00356698972897415,0.0217605406777396,0.458292747941291,-1.5855948940573,1.0959934909557
526,526,0.0912490170996651,0.119128831676088,0.949071924413776,-0.0395738272478771,-0.00674703029984176,0.0274765807186884,0.327106389508094,-1.86872484546117,0.951635926887974
527,527,0.09119707576717,0.119093416854833,0.949136854692369,-0.0293946407432108,-0.0172362048212518,0.0334778297557515,0.194317211244302,-1.97200697816471,0.704572657796493
528,528,0.0912147361978309,0.118995663052969,0.949214573199014,-0.0168980314070843,-0.0268324471677679,0.0390117910027504,0.0996517626099189,-1.78198725751593,0.356390173777678
529,529,0.0912412158172713,0.11888479903368,0.949318575176482,-0.00449352500344791,-0.0331069287943147,0.0432314046200048,0.116316626354839,-1.59915126729428,0.0739218721605264
530,530,0.0912158046170583,0.118810493120297,0.949462629508077,0.00552965397666224,-0.0349703012633534,0.044871675272406,0.027015103971115,-1.30161503571546,-0.243622710067315
531,531,0.0911292252110328,0.118795913024122,0.949674680352446,0.0129899142364744,-0.030981363022677,0.0430773106146357,-0.0529806555225717,-1.00193937891333,-0.357567622737438
532,532,0.0910222583403513,0.118808608812634,0.94994484233604,0.0206567187990254,-0.0239802871570624,0.0388663463733964,-0.169463071771459,-0.635584539781552,-0.439066290391422
533,533,0.0909092058839652,0.118814906160292,0.950230406918891,0.0284312386431234,-0.0153998240468143,0.0335396039864064,-0.256561987766738,-0.340492554890681,-0.548792536606069
534,534,0.0908043304272515,0.118780957961706,0.95048879387025,0.0356099926217151,-0.00973560868956538,0.0276687042878608,-0.256063919315683,-0.100336969914708,-0.682884492301293
535,535,0.0907219103945909,0.118672730032239,0.950677517090193,0.0415692014080827,-0.008719118481071,0.0220325941900942,-0.152877608276043,-0.00417325641730173,-0.686427815478723
536,536,0.090667561837787,0.118545533778253,0.950806479222568,0.0451869403856046,-0.0121956148079295,0.0164102942302551,0.0984940173126016,-0.0378368607875748,-0.650869904811785
537,537,0.0906317019791209,0.118421667399872,0.950904129794435,0.0471749688155321,-0.017092588435396,0.0102651597657478,0.336252262497165,-0.176436805891997,-0.662159730861566
538,538,0.0906058260029099,0.118217486479625,0.950955933225249,0.0465429902678643,-0.023222383629692,0.00379631768924423,0.565791719065849,-0.355622630137631,-0.659874182998313
539,539,0.090581310957274,0.117849471957826,0.950947472928687,0.044458802780681,-0.0311653718126107,-0.00243776221949664,0.564373443862051,-0.415705628154636,-0.671048260209608
540,540,0.0905493919751865,0.117234355732495,0.950864546846315,0.0419057962576734,-0.0402824910955907,-0.00839054369915485,0.4860332838337,-0.488177268516407,-0.652392793175386
541,541,0.0904988190079176,0.116314468757697,0.950677190607349,0.0391274421239243,-0.052459634611466,-0.013979283946206,0.312261273471105,-0.537949438344988,-0.630959991026317
542,542,0.0904347869525308,0.115145079189932,0.950396472612001,0.0358782636681986,-0.0689749695500559,-0.0186958228822579,0.14865763144985,-0.633837984077265,-0.453002062170941
543,543,0.090373353143165,0.113812750351796,0.950069717063526,0.0322586636193798,-0.0888245957713323,-0.023007125978995,0.00462561417374981,-0.753009287783142,-0.685221356873707
544,544,0.0903309444022418,0.112404255088463,0.949743658106145,0.0287742776880109,-0.107941107180415,-0.0270561319799615,0.0716764069125838,-0.840661581139248,-0.450502155463436
545,545,0.0903243750317965,0.111006569720741,0.949464305764118,0.0242261746568046,-0.122245277741436,-0.0303566625692687,0.0199436372740808,-0.83826430693207,-0.297184358491633
546,546,0.0904171960398976,0.109580815291955,0.949223084114589,0.0205722463484711,-0.131319434889008,-0.0336972622523906,-0.0752075436885674,-0.731968129504517,-0.287195763901107
547,547,0.0905982825289667,0.108069296938651,0.948990266189811,0.0171037633131174,-0.136653982668242,-0.0369100403872889,-0.216193979284107,-0.602232127556022,-0.253769518740938
548,548,0.0907728199622544,0.106531120681807,0.948779432255019,0.0131020664194353,-0.139683538696459,-0.039384087504102,-0.248899252292787,-0.496815083243775,-0.245393607239669
549,549,0.0908461485756445,0.105025671807166,0.948603939535778,0.00681907170746852,-0.140734059128355,-0.0406960547912068,-0.188507594984193,-0.395380616893072,-0.199084503337071
550,550,0.0907237465669427,0.10361256448268,0.948476927235106,-0.000589362163620166,-0.141724234767273,-0.0400287802055567,-0.192004335300065,-0.271791814727693,-0.199159354991217
551,551,0.0903537511991148,0.102282914271995,0.948395786520727,-0.0102719288752791,-0.144135211042407,-0.0368362908736363,-0.238221636908183,-0.257643643807367,-0.176520838099399
552,552,0.0897996559396167,0.100997909529321,0.948353486266324,-0.0239044468559271,-0.145971663879074,-0.031267728502325,-0.254971417413748,-0.258779026063129,0.0370431974224688
553,553,0.089139973482213,0.0997722946030501,0.948354879262955,-0.038550351176119,-0.145575694786788,-0.0241384234772028,-0.183155289151517,-0.164834301572526,0.31292112838403
554,554,0.0884530612932098,0.0986207160214382,0.948402710042752,-0.0535698624242994,-0.138316109803719,-0.0164487342649572,-0.27741232654595,-0.25750720211998,0.683036333486945
555,555,0.0878171303466165,0.0975576740201717,0.948497909404184,-0.0641745385410244,-0.124616622938168,-0.00819933580570388,-0.437105795380473,-0.223395744546529,1.01091919131442
556,556,0.0872044761654083,0.0965564354871135,0.948690711082295,-0.0717363634259535,-0.105207946786791,0.00261346243462426,-0.557332039859584,0.00264207427461787,1.36755879311946
557,557,0.0865631526511672,0.0956080135671428,0.948978360687712,-0.072967649538639,-0.084411291337586,0.0160483103699917,-0.6482317148009,0.479776127234423,1.52768590693828
558,558,0.085934800878404,0.094752325184444,0.949281858025752,-0.0682120933372844,-0.063877285506628,0.0293326484553546,-0.814453743187566,0.654769989770238,1.27919596246718
559,559,0.0853608023800432,0.094028300203283,0.949522829304643,-0.0576024449399452,-0.0445398274620652,0.0392409376932678,-0.947782749710213,0.773457723283962,0.7007138238756
560,560,0.0848822671054952,0.0934742069009935,0.949623515235111,-0.0451875881390213,-0.0315803309591302,0.0427265038931589,-0.880099965299216,0.87704811011588,0.141332276637109
561,561,0.0845277111613577,0.0932036717109997,0.94952321754997,-0.0351748031982039,-0.0265444034732654,0.036228847482144,-0.461043579887647,0.970123255253935,-1.13110820363461
562,562,0.0842693536098038,0.0931895211639149,0.949276251079621,-0.0306749369014626,-0.0237312634001966,0.0218057782893914,-0.255258163017324,0.436067528116514,-1.8314837856359
563,563,0.0840636579720039,0.0932589750176755,0.948977118471937,-0.0322115682317568,-0.0237562995128239,0.00399935880768379,0.0235511117766727,0.0098418981176716,-1.87085690812821
564,564,0.0838669627696727,0.0932395319243919,0.948718739358506,-0.0393923671367246,-0.0275134360650356,-0.0120174627459627,0.261761460160639,-0.169560692114406,-1.56318560978786
565,565,0.0836355808156696,0.0929587107919322,0.948592056513474,-0.0502084417775534,-0.0299023168147945,-0.0211729250281338,0.398471711729542,-0.582435590091917,-0.695028576367396
566,566,0.0834025718865726,0.0923468505997877,0.948607813870439,-0.0632586801182665,-0.0366436821981367,-0.0218987255004604,0.637214585163069,-0.36929174875294,-0.121141148904367
567,567,0.0831965286259513,0.0915184431836352,0.948705005052509,-0.0720989185010983,-0.0525118440356924,-0.0173170040393996,0.524460678359813,-0.0233625701615595,0.169965694166755
568,568,0.0829674142049952,0.0905776478512249,0.948865167444831,-0.0763371676402641,-0.0720922526518385,-0.00907455649445636,0.676786464112753,0.310222036029176,0.444514331494117
569,569,0.0826654664594349,0.0896291747421946,0.949069502639687,-0.0768649274030222,-0.0875415961304275,0.00065049139864888,1.04530189713521,0.378380411983197,0.668206598640088
570,570,0.0822411523468855,0.0887782697881675,0.949298949138644,-0.0722867751243671,-0.0932463182297004,0.00970186979108748,1.16628852608378,0.395811763948436,0.737891568242845
571,571,0.0815776749926216,0.0879917251653694,0.949567642445419,-0.060943077918242,-0.0849397744495288,0.0191899525186335,1.10029918647859,0.453130108528211,0.990365492278377
572,572,0.0807083308632006,0.087200017463116,0.949887058612135,-0.040758147621735,-0.0668186382681053,0.0300950537080014,0.856158270776812,0.563055324877355,1.18248083195937
573,573,0.0798089351353895,0.0864541955028295,0.95023389033572,-0.0149713294389858,-0.0454718933541205,0.0406586671322157,0.447160639535776,0.797792863478665,1.03096043975161
574,574,0.0790553981217613,0.0858052446319637,0.950584788217948,0.0115314946053972,-0.0261073777707523,0.0492239458016657,0.0565775448815623,1.06228118705018,0.557106018322155
575,575,0.0786237064684173,0.0853041200737347,0.950916412337282,0.032464226259436,-0.01115788482438,0.053868617862267,-0.0744130159613218,1.28782459491623,0.153884844883734
576,576,0.0786136870856155,0.0849895622411931,0.951242107139059,0.0467962292667237,-0.000576643075140445,0.0537674439301071,-0.16751212831904,1.41175778205604,-0.174165543534022
577,577,0.0789084186941033,0.0848279231786973,0.951576437464273,0.0579311310807464,0.00902217601248533,0.0498247912857083,-0.118181028329119,1.46747980457527,-0.374878109626414
578,578,0.0793587334394967,0.0847614168899816,0.951897807820435,0.065629133952198,0.0172088010565517,0.0431650575954856,-0.077739829607111,1.43736221355983,-0.480492712126717
579,579,0.0798153933462413,0.0847320862553498,0.952184555011924,0.0701291655544337,0.0237612614984484,0.035474332004163,0.0410122100563297,1.29313028582752,-0.597060913559218
580,580,0.0801291078870138,0.08468183390109,0.952415005360561,0.070601610301474,0.0288505010283249,0.0283390965522728,0.134222082241375,1.04132932464355,-0.716290657697817
581,581,0.0802852410192949,0.0845645401089766,0.952596485963655,0.0649889053202643,0.0302276705649057,0.0214774065970478,0.232294403061478,0.819634244877704,-0.758943099428205
582,582,0.0803833798902854,0.0844188273105308,0.952742865822373,0.0539023621291078,0.0278996177914496,0.0138558642132504,0.257781376296726,0.438677828927371,-0.806207101371671
583,583,0.0804455119640552,0.0843136499164456,0.952842457097091,0.0406946299970515,0.0241833181419339,0.00602855647687087,0.182072968429523,0.226566065092687,-0.805373713895754
584,584,0.0804936014732413,0.0843179738432014,0.952883722261301,0.0289988362385502,0.0222639214971462,-0.00143714407034117,0.201537860424337,0.0466278423021445,-0.754923184930605
585,585,0.0805496027277907,0.0845007689322846,0.952855208110827,0.022284418514732,0.0244091688582274,-0.00804068437886488,0.144811242615949,0.0395485771136135,-0.675623001668387
586,586,0.0805946802811278,0.0848833191072107,0.952746569844587,0.0212241369965651,0.0312935315862478,-0.0139375380502649,0.0355742236243482,0.0246053483282404,-0.59607225140727
587,587,0.080614129115564,0.0854196619343366,0.952565789026616,0.0230267916401372,0.0404591590299267,-0.0196094229351826,0.0488277764126561,0.11967190639051,-0.523705257175105
588,588,0.0806360658436409,0.0860778669843099,0.95232894659411,0.0258090420053215,0.0503395291914606,-0.0247936565782132,0.118942430776317,0.310835945172799,-0.441699152380832
589,589,0.0806885471172359,0.0868259295692286,0.952052156294554,0.0276895402872395,0.0599125762529579,-0.0291977070902432,0.202788721040623,0.462720421754265,-0.398582652180232
590,590,0.0807995570602677,0.0876317270542748,0.951751567177311,0.02829090369789,0.0675820825059049,-0.0327642607840376,0.339281059630996,0.562705065835098,-0.355558052525208
591,591,0.0809957399993396,0.0885104066342843,0.951421900551404,0.0270472333928644,0.0735540340816544,-0.0350619374592298,0.421695053176533,0.632045876243272,-0.322939866301882
592,592,0.0812580867426755,0.0894830282947224,0.951053298167395,0.0241796348808079,0.0790919957263551,-0.0362186181958855,0.465460249186948,0.615230493754554,-0.227574385692362
593,593,0.0815461130585647,0.0905262807192072,0.950654975337111,0.0205815161899304,0.0835671006079229,-0.0368318106002119,0.503125805651651,0.601021641557472,-0.108991897902831
594,594,0.0818194480360004,0.0916169635244846,0.950235967477986,0.016678896595875,0.0877493267868726,-0.0369167612121964,0.356802205587543,0.53452908342729,-0.0756018327981844
595,595,0.0820378347389012,0.0927320233315681,0.949805108159381,0.0141605391352974,0.0931041938960241,-0.0366766860530137,0.237610694002589,0.408065552152028,-0.047692308729119
596,596,0.0821915373254228,0.0938917125225967,0.949317406004842,0.0127380616781986,0.0983441653028746,-0.0364386164397242,0.017021102679343,0.206789813070034,0.11824986613012
597,597,0.0823071464945319,0.0951111870887459,0.94876796047496,0.0105614220914578,0.101571467661788,-0.034463541560965,0.0463370128503831,0.329827170250579,0.0545987434334252
598,598,0.0823991015583397,0.096359905293627,0.948225357569598,0.00718561379402829,0.104763936927072,-0.0333895532879207,0.0454297883975471,0.270645162400424,-0.0328012831578827
599,599,0.0824820523359239,0.0976073705641959,0.947757815692527,0.00368816411459284,0.108596787640362,-0.0312659426714246,-0.0188220993925505,0.319837797450193,0.240528610445829
600,600,0.0825708722385373,0.0988231357933569,0.947433210621361,0.00200340140128757,0.110575716379214,-0.0284135826533662,-0.0247573270509744,0.475505684247206,0.209739766763994
601,601,0.0826712193935863,0.100043063474514,0.947287731367017,0.000767683997284335,0.11393782655114,-0.0242839284103756,-0.165526892093765,0.657188838625525,0.319936727775618
602,602,0.082773429009653,0.101287264652783,0.947277201439967,-0.00112798947973496,0.120673095014761,-0.0181819277890401,-0.266428950676418,0.553511812296492,0.312399521767836
603,603,0.0828696269721397,0.102501833220709,0.947347874800831,-0.00533548509461432,0.124981664479815,-0.0113126509292372,-0.287412988911636,0.617387832702114,0.446480789680564
604,604,0.0829519863368733,0.103633036431398,0.947444782904492,-0.0114724015333068,0.124315230582549,-0.00499384983815772,-0.336768890942085,0.607341644857529,0.570993978140834
605,605,0.0830126873871034,0.104627337479685,0.947511903508723,-0.018590199100459,0.118122093970255,0.00090075415184799,-0.284034301486552,0.655041480834661,0.874311712561954
606,606,0.0830895617048385,0.105479960504094,0.947561004656562,-0.0301955968550177,0.104669903175852,0.00739777067131834,-0.301123593794113,0.62287716710278,1.45883099913747
607,607,0.0831882221704177,0.106226759285087,0.94762849104225,-0.0353734334587775,0.0830567885626957,0.0146857365517154,-0.660608738386246,0.397892199745521,1.18919839007404
608,608,0.0832523789018179,0.106875679951579,0.947695019117431,-0.033944794687469,0.0569570256297108,0.0217110444490471,-1.09249441593033,0.211109611397214,0.681179013986953
609,609,0.0832255111357795,0.107435077879425,0.947741524199226,-0.0263806223430689,0.0394121559771417,0.0273546123034588,-0.863503275497649,-0.506810701654361,-0.211605209943822
610,610,0.0830508941496645,0.107913635907404,0.947749171178346,-0.0205568063695802,0.0246762844242311,0.0297102923246194,-0.824757366137593,-0.303631827808434,-0.167419441053975
611,611,0.0826501759518184,0.10821120159783,0.9476925847893,-0.0165962164176167,0.0241316984567497,0.0278963814568331,-0.912384062374979,-0.625276492755186,-0.627211112106642
612,612,0.08206106216681,0.108323312858939,0.947585668864428,-0.0194277416825484,0.0287682482836113,0.0221505315778006,-0.843361198018217,-0.365304846354015,-0.465451113255408
613,613,0.0814007395873614,0.10840201759537,0.947468606740324,-0.0250806662022417,0.0405370848540843,0.0146059916198331,-0.67156919838811,-0.292349510418454,-0.276962709662583
614,614,0.0807862238379953,0.10859899615789,0.947381158828659,-0.0331705792035026,0.0535795946144192,0.0075411107199381,-0.316977603762466,-0.116865612302929,0.0324523573537081
615,615,0.0803343976681153,0.109065577666874,0.947362464798329,-0.040032175161049,0.0645251400711335,0.00298554629097322,-0.140359379774138,0.130978011072976,0.245012179419069
616,616,0.0800757991180575,0.109907363733006,0.94739515587254,-0.0430038322682864,0.0746519836601927,0.00104162640110634,-0.0700056016676815,0.284526997047832,0.416680077722708
617,617,0.0799321958135133,0.11102385508327,0.947454581961924,-0.0402720441062448,0.0866180262252629,0.000791313603598788,-0.347263434892117,0.277440109952196,0.382589303555946
618,618,0.079857234027252,0.112256271776477,0.947567656821063,-0.0316914644437232,0.0989132540158986,0.0021982484637378,-0.41020704111747,0.0766136307314836,0.221692660747257
619,619,0.0798044286135492,0.113445051007466,0.947760146635881,-0.0196443889923901,0.108779877325156,0.00464283415538344,-0.125143593605643,-0.321161245071502,0.0503003735314737
620,620,0.07972718442611,0.114429922796624,0.948056733603698,-0.00788638217612723,0.110831366495652,0.00757106186869927,0.393840029784896,-0.717178454636687,-0.0288697138238972
621,621,0.0796190389426024,0.115201051817433,0.948498706079013,0.000957156564361883,0.0995520796410658,0.0113943774736486,0.874395397121202,-0.96715868045296,0.125117394861232
622,622,0.0795103753243551,0.115863395864221,0.949068985847604,0.00664214209658053,0.0774163022706547,0.0160529066573934,1.08810745441643,-1.08487364994556,0.247599494863077
623,623,0.079410324389544,0.116428967702477,0.949702990520307,0.0100233510549585,0.0515517248010196,0.0206334987894721,1.05409818291873,-1.20797190267594,0.341241420327699
624,624,0.0793287012120964,0.116910600059252,0.950334862019773,0.0131489223431353,0.0278296369018068,0.0243268232173704,0.858485999614488,-1.36829129769646,0.342819494659717
625,625,0.0792759449511829,0.117321902645282,0.950897729864687,0.0170160156303798,0.0122008963561844,0.0270021291290725,0.620151962806527,-1.50622665760519,0.299784949605409
626,626,0.0792610175661972,0.117623252290247,0.951397495755034,0.0231046725142822,0.00536467821662598,0.0290689597599159,0.480237835769836,-1.59403051777542,0.0835946000968546
627,627,0.0792779681667761,0.11780581087561,0.951875969901007,0.0317579356890253,0.00268992848260424,0.031143767380225,0.388504812634316,-1.46834183590995,-0.0535407149207013
628,628,0.0793149968893421,0.117930092875111,0.952320272471872,0.040825935025062,0.00144585438112173,0.0328479775639417,0.325390657646173,-1.2791820243009,-0.101114826002641
629,629,0.0793600123347707,0.118056717987855,0.952718039863683,0.0483475903435722,0.000721686074346813,0.0338865133201011,0.390321909411762,-1.04521883010974,-0.230931367527889
630,630,0.0794007062723595,0.118246273548691,0.953057186181756,0.0537871655882701,-0.000756254333995028,0.0333470810526469,0.346630647507184,-0.673651835107398,-0.382481391498155
631,631,0.0794168434159809,0.118556642820199,0.953341114238794,0.055707638440254,0.000175181067038135,0.0302471987793697,0.302302566478182,-0.490339206366796,-0.493487165352721
632,632,0.0794166937795193,0.118947784987536,0.953577591342504,0.0551034458949418,0.00421562065657045,0.0249462725347857,0.232055988259431,-0.261142658289998,-0.553684837383676
633,633,0.0794306207432059,0.119333234545179,0.953761273532534,0.0539000144479036,0.00951564551163135,0.0182691270629885,0.0857399641083141,-0.17017277894953,-0.634470461559965
634,634,0.0794889509112458,0.119626369172558,0.953886903153095,0.053585186954665,0.0125620103763538,0.0113406621151466,-0.00431372119373951,-0.0711782685616391,-0.709405752873048
635,635,0.0796219531034036,0.119740483950005,0.953949331426242,0.0548360135646085,0.0108633482876428,0.0050272119241866,0.0248879077686979,0.013763765573992,-0.766762863847283
636,636,0.0798522976169487,0.119676546327971,0.953945328872742,0.0575178856997512,0.00312340484734035,-0.000822602652853388,0.0821632073939166,0.0646175770264769,-0.779104495983314
637,637,0.0801596480444371,0.119491836224377,0.953878609646144,0.0607789023760931,-0.00816086192660884,-0.00684301204138347,0.151175969351264,0.00250718376884117,-0.700164001713617
638,638,0.0805096753450968,0.119184189792237,0.953754603255799,0.0633148616813623,-0.0207389947779485,-0.0129581165911763,0.216039170061216,-0.170719846801881,-0.604492930234221
639,639,0.0808680090214833,0.118751679186695,0.953578900980721,0.0639238643324374,-0.0332542924435604,-0.0188690003362216,0.259577216904286,-0.373888023396746,-0.500894947810653
640,640,0.0812002770471721,0.118192814630042,0.953357339576634,0.0616162012668774,-0.0454303113784779,-0.0242647933905495,0.294091331988157,-0.555026691912258,-0.430303907096873
641,641,0.0815267545017739,0.117478462376075,0.953085502156436,0.0562844126539478,-0.0571777279045715,-0.0290646212677766,0.363579620728782,-0.748828212269473,-0.432032953652247
642,642,0.0818700200070592,0.116610354729367,0.952761194982803,0.048617779244469,-0.0694085610455036,-0.0334468820826848,0.455755628032943,-0.882467791998707,-0.438108664134628
643,643,0.0821992626449707,0.115633715579713,0.952393625274377,0.0404563543014052,-0.0811074011013268,-0.0372290708852313,0.474679040118765,-0.896022366675127,-0.469249196770243
644,644,0.0824837689967605,0.114593548632685,0.951991607030221,0.0326936816765945,-0.090748970693027,-0.0401868076952004,0.34408486325208,-0.857054498895549,-0.446338030969689
645,645,0.0826928929098892,0.113534513360372,0.951563453591373,0.0271901919818496,-0.0978247178064603,-0.0419187090643142,0.265031878026053,-0.73642116370533,-0.420842827336603
646,646,0.0828150679807997,0.112420688546933,0.95106390509841,0.0249141333455687,-0.102760351915326,-0.0422069017704678,0.0505238494133009,-0.628769728354694,0.0293620211563026
647,647,0.0828707181074831,0.111223546502609,0.950489384796888,0.0247159857424981,-0.107228445644482,-0.0407308901360664,0.144446379600447,-0.302990579773348,-0.351051516858573
648,648,0.0828772052178543,0.109997913616601,0.949909547683243,0.0241991117014164,-0.108553413560831,-0.0403798007928093,0.0507806906884967,-0.228273481197776,0.127906903961242
649,649,0.0828518626067538,0.10879768474561,0.949392883176444,0.0224371929567583,-0.10777020274696,-0.0387627617712079,-0.0924891832379057,-0.034178282188124,0.158570009290361
650,650,0.0828120053083329,0.107675785653184,0.949006719978099,0.0199304437843639,-0.106847772493759,-0.0364628818959632,-0.169783635797342,0.0488466014308503,0.167370215303624
651,651,0.0827491068420621,0.10658820447984,0.948763647330907,0.0172977460178032,-0.109396348015789,-0.0333104455435383,-0.253436891064925,0.0196398104168816,0.125244251847678
652,652,0.0826516710375993,0.105498229945595,0.948618677700892,0.0132213932680365,-0.113994796466064,-0.0290010961819998,-0.338668993465693,0.0264510616841249,0.106732440067908
653,653,0.0825327656358132,0.104469544401826,0.948551477744782,0.00758362667623027,-0.116049173605025,-0.0235509189054417,-0.418920273656893,-0.174713498244664,0.242061240673942
654,654,0.0824055713448321,0.103566565502673,0.948540982432144,0.000415304664276594,-0.113380136939477,-0.0172237071236316,-0.420466076158479,-0.389840878227735,0.478970842272176
655,655,0.0822832848504882,0.102854400681552,0.948565476908731,-0.00581744357163632,-0.105103682395524,-0.0102415353534956,-0.502994267235394,-0.684054672103244,0.633445953570077
656,656,0.0821043819208656,0.102318253532734,0.948680497494857,-0.0150506653271221,-0.0888763967031861,-0.000133455700887045,-0.58945766912865,-0.670295542463374,0.955017715120898
657,657,0.0818603948214449,0.101914998792565,0.948899235149679,-0.0252536225032531,-0.0690340238496937,0.0133875472638156,-0.428145153414415,-0.760206654382336,1.36924583566519
658,658,0.0816439995726043,0.101667365462946,0.949136358429973,-0.0360199309546775,-0.0493971700669237,0.027417043770738,-0.757940150753886,-0.419017952552823,1.57036499513043
659,659,0.0815477632710379,0.101597673171897,0.949306998140486,-0.0395093517060062,-0.0333054951795608,0.0382015704093821,-1.17018041133675,-0.0963180863625103,0.968330934558479
660,660,0.0816641474716106,0.101727806651707,0.949326900708641,-0.0371336091924006,-0.0178716199050216,0.0424280973296277,-1.28663322095071,0.0399933190637606,0.407808914981205
661,661,0.0820881653122213,0.102209919700628,0.949133716629411,-0.0280339966627058,-0.00165422465533598,0.0364001099712229,-1.23997717897873,0.269126469899711,-0.177099629332201
662,662,0.0827579084206772,0.103027602208721,0.94878562836125,-0.0179014760911544,0.0136492659219549,0.022412436033211,-1.13893846191551,0.54554006056527,-0.621654351376152
663,663,0.0835303039510348,0.103950134666571,0.948379226757942,-0.00835160741173599,0.0256281126724411,0.00490943300438537,-0.914861906800373,0.487368888407246,-0.99869885169566
664,664,0.0842622567056052,0.104747860340882,0.948009908001503,-0.0039580910037261,0.0338116815335439,-0.0111988020250316,-0.540435387829329,0.175298901207869,-0.898717571494006
665,665,0.0848107594422312,0.105192275881277,0.94777155084812,-0.00557523070073093,0.0358248516392153,-0.0206533427740619,-0.233345332399687,-0.158519436584035,-0.649271308586965
666,666,0.0851648596522264,0.105243324380774,0.947666178665627,-0.00875604999681767,0.0260374295906957,-0.0227602940868653,0.0484383225825692,-0.167747070367509,-0.292480798718158
667,667,0.085419295088933,0.105053443423075,0.947631532874879,-0.0101049757780364,0.00498645827900803,-0.0203024906122191,0.250058617856773,-0.072470848684535,0.12670660720113
668,668,0.0855899623549509,0.104684137376837,0.947663292509303,-0.00781325553898611,-0.0205886549570509,-0.0145874560249095,0.402553414284322,0.0137211485758352,0.486609049837442
669,669,0.0856931109272472,0.10419755067253,0.947756326234531,-0.00209915063268622,-0.0431588357189876,-0.00720965937864681,0.595277985508091,0.170326272577745,0.751036110455686
