,Frame,CoM pos x,CoM pos y,CoM pos z,CoM vel x,CoM vel y,CoM vel z,CoM acc x,CoM acc y,CoM acc z
0,0,0.169411211608082,-0.0378417864897208,0.956256456822696,0.00543959098806406,-0.000344321624541003,-0.0177483871211682,0.0179683775753618,-0.0277149196049595,0.0189104952050386
1,1,0.169637993915281,-0.0379473627692991,0.956099137999279,0.00637220459010042,-0.00119508609338601,-0.0181401429853876,0.0142893032544271,-0.0757885465464692,-0.0818261474622011
2,2,0.169870259507811,-0.0380530620326664,0.955938294737561,0.00717242673070406,-0.00149375252891885,-0.0186039811476882,0.0315692857696093,-0.0848526767156811,-0.0413986354443658
3,3,0.170099768033726,-0.0381586997163508,0.955779264770811,0.00745415995713174,-0.00207667478763385,-0.0190385418019752,0.0534005894633486,-0.0648400913549221,-0.0396967908393958
4,4,0.170318281121213,-0.038264091391478,0.955627381794139,0.00786435618344346,-0.00244690938174446,-0.019398171229498,0.0280394026068004,-0.0902625170020606,-0.0296434619639742
5,5,0.170517562204578,-0.0383690526035445,0.95548797565893,0.00805942333932913,-0.00277055854201838,-0.0196459632925043,0.0405589775762342,-0.0705349001431351,-0.0266361910597059
6,6,0.170694164727428,-0.0384722656660694,0.955362481444628,0.0083057674367257,-0.00276396092151562,-0.01973992463611,0.0117904364953219,-0.0626999221647193,-0.0408108688302508
7,7,0.170853583592767,-0.0385738529287518,0.955247337836911,0.00810071061062997,-0.00248589324705021,-0.0197219712585225,0.0145320816483935,-0.0740612634831316,-0.0322938123147452
8,8,0.1710009947574,-0.0386757899683432,0.955140378281713,0.00730933670921463,-0.00269358551875452,-0.0196084265941241,0.038286265077443,-0.0418701124715636,-0.022781591440479
9,9,0.171141573193814,-0.0387800529735889,0.955039437388271,0.00680691300682537,-0.00277211372908577,-0.0194368348059905,0.0250424422609485,-0.07161536983339,-0.0191493095394549
10,10,0.171280493041358,-0.0388886188977797,0.954942350918596,0.00646013341930817,-0.00333645941519977,-0.0192071819284205,0.0235900806411191,-0.0485974543034252,0.015884457773434
11,11,0.171414353369338,-0.0390033752297537,0.954849681478642,0.00674306139060438,-0.00430382359430989,-0.0188854547053441,0.0285604675439125,-0.0967256172770568,0.0396862010778515
12,12,0.171539705747304,-0.0391230041060457,0.954762867450188,0.00713335193985888,-0.00568342010094897,-0.0184456206421159,0.00628578933561625,-0.113945699389477,0.0520074342649705
13,13,0.171661652190331,-0.0392446751384518,0.954681059948248,0.00813942500284022,-0.00718331596579285,-0.017955324283037,-0.0444352596861435,-0.0947285278672299,0.0224758702405749
14,14,0.171785294285041,-0.0393655581544169,0.954603411105501,0.00886382264988506,-0.00856690685526064,-0.0175193734213993,-0.0582897548529386,-0.0759493282160765,0.00151043844602186
15,15,0.171915733224889,-0.0394828231238236,0.954529073879501,0.00964522973719239,-0.0092564333932263,-0.0172113675815444,-0.0538082366499597,-0.0726989151381826,0.00352126472251999
16,16,0.172054763824418,-0.0395974868124624,0.954458958833068,0.00956335146872204,-0.00930636169557533,-0.0170552964326128,-0.00917086803624581,-0.0783351633481045,-0.0069915165119688
17,17,0.172198985419444,-0.0397114360028993,0.954393629061337,0.00941145361847665,-0.00894761780751759,-0.0170050646717694,-0.0208081269548131,-0.0383579443160052,0.00145581340165572
18,18,0.172345705354551,-0.039823146105836,0.954331717055604,0.00897408026388599,-0.00846777690245609,-0.0170196190986576,0.00857617326770059,-0.00416837149709425,0.00388804322024662
19,19,0.172492230559908,-0.0399310931370429,0.954271855751117,0.00859619130984068,-0.00765277891283111,-0.0170445614615824,0.0141706039513067,-0.0279054701783998,0.00441832458597025
20,20,0.172635867616047,-0.0400337538623577,0.954212678595699,0.00847836383417016,-0.00736753124428374,-0.0170541981588583,0.0188938527296935,0.00464044863508345,-0.0431851726114665
21,21,0.172780613209475,-0.0401279818065425,0.954154043463439,0.00865347415361705,-0.00711926443827464,-0.0170785405719349,-0.0170085803121161,-0.00283884149238295,-0.0493085207838726
22,22,0.172928262389356,-0.0402147947699596,0.954096861147486,0.0086582718016823,-0.00693002790144256,-0.0171452653433146,0.0275779452446733,-0.0193700799177731,-0.0295626817283894
23,23,0.173072819102009,-0.040298915730006,0.954041344732586,0.00906369887495763,-0.00668454232376145,-0.0172209769284312,-0.00309544462401693,-0.0360531521513359,0.00261703685792536
24,24,0.173208287104075,-0.0403850663046366,0.953987706830048,0.00929304713977417,-0.00643044310567249,-0.0172258936068032,-0.000532643313480949,-0.0285894635247012,-0.0209302130435381
25,25,0.173328669977235,-0.0404779667946476,0.953936159690688,0.00906016065633349,-0.00658029660086531,-0.0171204999779739,0.0132980184068167,-0.0229414462545294,0.00778405373957526
26,26,0.173428624394688,-0.0405813605665639,0.95388655400638,0.00860308001633193,-0.00681587254948347,-0.0168546925032309,-0.00223018901075986,-0.0195015289463233,-0.00120576350952463
27,27,0.173512147573809,-0.0406921005847495,0.953838748533346,0.0079760357220929,-0.00707825334207342,-0.0164553532628599,-0.016456362357529,-0.0487690001652671,0.00766585728682081
28,28,0.17358725437074,-0.0408045707340202,0.953792967175217,0.00733946058080782,-0.00722745577363582,-0.0160032908443954,-0.0257222450518677,-0.0385571909158544,-0.00169793672915819
29,29,0.173661959946468,-0.0409131546135634,0.953749432689937,0.00662953113962086,-0.00746656600919012,-0.0155621558645325,-0.0323295914161691,-0.0360756309988785,0.0370317083550928
30,30,0.173744279661335,-0.0410122354287391,0.953708366609423,0.00627374944892597,-0.00771846258582869,-0.0152251236013381,-0.0527393933068066,-0.0403391941183286,0.035422261675893
31,31,0.173834424523563,-0.0411059004259768,0.953670255884008,0.00619477133081014,-0.00755843148176091,-0.0149961097362273,-0.023562110151238,-0.0422906044714568,0.0188662028628409
32,32,0.173927051660178,-0.0411978936260871,0.953634951857229,0.00616367817664185,-0.00754145156502882,-0.0148047586467219,-0.0386823730827894,-0.01120518117747,0.00502570821216458
33,33,0.17402184591991,-0.0412820832824206,0.953601721138825,0.00618652206624476,-0.00748059624503867,-0.0146748026197434,-0.0043879840568813,-0.00479841983903691,0.0173945232085656
34,34,0.174118492373617,-0.0413523378715068,0.953569829523034,0.0060567514500105,-0.007558140276362,-0.0145618019443403,-0.0357836638613548,0.0160794728873128,0.0352478605144541
35,35,0.174216676524128,-0.0414025261695376,0.953538542574991,0.00551415117197375,-0.00803408291567082,-0.0144439132129347,-0.0405780811079837,0.0438275299406693,-0.00756433107273282
36,36,0.174322957898924,-0.0414229834114141,0.953508171127583,0.00459766654514319,-0.00838191168668835,-0.014320755681355,-0.0129931076753057,0.0342008302732703,-0.00162812786426339
37,37,0.174437549705147,-0.0414177982621625,0.953479206119795,0.00432675151125871,-0.00799126307007678,-0.0142137823627365,-0.0162997987335161,0.0451698675002893,-0.0330294520493458
38,38,0.17455061663008,-0.0414014689426747,0.95345118229006,0.00515616690906798,-0.00551208107569526,-0.0141436974890597,-0.0889479372145816,-0.0732097820210549,-0.018120808237752
39,39,0.174652320130192,-0.0413884920013525,0.953423630444431,0.00559385903610942,-0.00330086627532045,-0.0141075076448808,-0.0966100551684107,-0.142263300506099,-0.0161096101483558
40,40,0.174732818529069,-0.041393362456175,0.953396077599782,0.00574665361264582,-0.0021509760720499,-0.0140592841917525,-0.136558168681878,-0.0862693988268312,-0.0376359824460094
41,41,0.174785075987935,-0.0414231507115149,0.953368548070163,0.00512436293817796,-0.00140884886224759,-0.0140850138953089,-0.0772514569431611,-0.0892712529740728,-0.00727049167965755
42,42,0.174815650839622,-0.0414681913784399,0.953341356445712,0.00430230219633649,-0.00157847760562221,-0.0141580382953907,-0.0527209558603363,-0.0376081294947909,-0.0337625513303569
43,43,0.174835092111484,-0.0415178759185287,0.953314463943714,0.00321497913437014,-0.0022255761016681,-0.0142320129198212,-0.0504012445429172,-0.0105720419511075,-0.0142249980061637
44,44,0.174853949751912,-0.0415615965027069,0.953287829342949,0.00222330305591971,-0.00243789826099023,-0.0142695907102971,-0.0274298314441465,-0.000890275813155942,-0.00118626619304452
45,45,0.174882774280076,-0.0415887457457881,0.953261408565682,0.00142680137914073,-0.00271964484009747,-0.0142222096736289,-0.0208539398524522,0.00283882982656007,-0.00122903928988144
46,46,0.174917240741308,-0.0416054391918884,0.953234927641645,0.000854586434316607,-0.00265131487522867,-0.0140755859956582,-0.0478098258851383,-0.0190560591573927,0.0178319087337403
47,47,0.174950316073507,-0.0416187490334522,0.953208414649821,0.000665286349049826,-0.00258781141057334,-0.013849327950055,-0.0771424650314039,-0.00526981320749547,-0.0186540495034318
48,48,0.174988489163803,-0.0416195030962954,0.953182278014789,0.000347291530311484,-0.00228794064364651,-0.0135938971930435,-0.0349115818155639,-0.0245368317913812,0.0391343046159455
49,49,0.175038249067377,-0.0415985291204499,0.953156927410733,0.000421788244767893,-0.00176780067538308,-0.0132896002567705,-0.0687862092900441,-0.0330252513358664,0.000765702233839459
50,50,0.175106085280703,-0.0415466549495342,0.953132775069226,0.000874310828764336,-0.00100727978712967,-0.0129885385821075,-0.0891570849946117,-0.0313139414959749,0.00757183545398288
51,51,0.175207306242865,-0.0414449316910743,0.953109883064369,0.00148592927338938,-6.19735228595693e-05,-0.0126716589014837,-0.0517216051088464,-0.00883960058896216,0.010064020096091
52,52,0.175337589313254,-0.0412994760643848,0.95308799529901,0.00232268205587762,0.00123090456875299,-0.0123123928523735,-0.0590433965729608,-0.0178863405085264,0.00125649059867387
53,53,0.175473975685063,-0.0411387131598751,0.953067038520978,0.0010700144246566,-0.000969618514823286,-0.0118897586387661,0.0663280697256025,0.136641679659676,0.0977303626632662
54,54,0.175593502549892,-0.0409910656452724,0.953046918260702,0.00349885114965645,0.00417615622781358,-0.0115689689939802,-0.176400121537826,-0.160110092061873,-0.030428560771299
55,55,0.175673203376762,-0.0408849539809413,0.953027520045063,0.00512311853062932,0.00689943550018696,-0.0112884397710882,-0.137203041213511,-0.079750725599153,-0.0139657390227775
56,56,0.175703945500783,-0.0408299009426226,0.953008723492385,0.00487164310623098,0.00806758649032414,-0.0110449213896384,-0.111748984746874,-0.0732001890431752,-0.0146210338075964
57,57,0.175701036866111,-0.0408069574075874,0.952990590932011,0.00332262063851731,0.00751711518993916,-0.0108064853624218,-0.0887511182271661,-0.0231306065700938,0.0085695348789112
58,58,0.17567817109619,-0.0408018355623491,0.952973277419239,0.00160077903958407,0.00651986043560445,-0.0105938828770277,-0.0896529548854986,-0.0526926649957246,0.0146978899471187
59,59,0.175649041958183,-0.0408002477183441,0.952956939009,-7.09506486735567e-05,0.00538233264692034,-0.0103417194390418,-0.114675320801021,-0.0401737663637534,-0.000802628084190316
60,60,0.17562734284647,-0.0407879060126391,0.952941729814516,-0.00142150825013288,0.00433151050116929,-0.0100354873927733,-0.066620085329918,-0.0511708367606901,0.0151361257020595
61,61,0.175610557875395,-0.0407638745268763,0.952927739390977,-0.00228955066148542,0.00290002046959649,-0.00963195838005439,-0.106909709862119,-0.0394340874548283,0.0203848750673765
62,62,0.175589558012881,-0.0407376781249438,0.95291486520616,-0.00295085727724122,0.00167415898111305,-0.00916351642684717,-0.0794765411154175,-0.0496298335539731,0.0301714561204488
63,63,0.175568116878238,-0.0407107202558261,0.952902971793775,-0.00339920759952656,0.000112700328793503,-0.00868096827133498,-0.0897834771630051,-0.0395031421191173,0.0304223043222572
64,64,0.175550007981583,-0.0406844045629966,0.952891923569683,-0.00347749796164666,-0.000850312230517416,-0.00821428545115154,-0.137279418856259,-0.0246979679677692,0.0298149689397483
65,65,0.175539004718105,-0.0406601348659652,0.952881584692131,-0.00344233967102064,-0.00172639385853858,-0.00784973054823858,-0.0908438359423255,-0.0507741484287465,0.0387029393667112
66,66,0.175534851910469,-0.040639268404517,0.952872167173214,-0.00321404796973326,-0.00201638023910785,-0.00757420773027378,-0.1134640196694,-0.052315618622548,0.0240938877953233
67,67,0.175535033799545,-0.0406208693640347,0.952863760706358,-0.00295903925131598,-0.00219573001389301,-0.00735351702639193,-0.104740953346736,-0.0387633231794412,0.00939186220080441
68,68,0.175539932881916,-0.040602902147267,0.952856045697859,-0.0027409754021065,-0.00216608189077197,-0.00718533548369613,-0.0348010345693753,-0.0571799359257137,0.0264846649629987
69,69,0.175549931623516,-0.0405833312893123,0.952848702707806,-0.00229021672818503,-0.0022424342610432,-0.00705280546292641,-0.0551279455813357,-0.0539544054572326,0.0207918718550156
70,70,0.175565412464845,-0.0405601215303805,0.952841412669542,-0.00216809369629859,-0.00256490271611233,-0.00689192271739083,-0.0435720525848142,-0.0445435421456427,0.000904002738535331
71,71,0.175588920878517,-0.0405354661207913,0.952834315277321,-0.00183756188255081,-0.00282551187064051,-0.00672552952542647,-0.0397198837454095,-0.064118009299363,0.0217206539858026
72,72,0.175620201778322,-0.0405107227723249,0.952827622305836,-0.00145041159751307,-0.00324197285856951,-0.00655798479881905,0.00441588010146851,-0.0549904468714725,0.0246863652319776
73,73,0.175655436934546,-0.0404826029384376,0.952821123693885,-0.000806017175871663,-0.00362290420233533,-0.00641852456488455,-0.0142567450898069,-0.0692999059510157,0.00813954345811782
74,74,0.175690808275129,-0.04044781759708,0.952814609971407,-0.000409690077698195,-0.00387296776953414,-0.00633295895524061,0.023555063787451,-0.0392239263084624,-0.00502364476340639
75,75,0.175722497775317,-0.0404030771546094,0.952807872230296,-5.49586500706756e-05,-0.00386030316525324,-0.00635814161129917,0.0207739182377895,-0.0583074765963783,-0.00293625931046091
76,76,0.175755059990959,-0.0403441866468357,0.952801091245617,0.000315346060203059,-0.00327727325224096,-0.00651200564124824,0.0277763268572248,-0.0518667439101422,-0.0145747215279106
77,77,0.175791040102279,-0.0402733390984819,0.952794407113559,0.000692748314258137,-0.00200248564973397,-0.00677269102203532,0.0501793604396604,-0.0753385723538078,-0.0270976644101296
78,78,0.175823606042013,-0.0401968263739671,0.952787550531521,0.000960777924707403,-0.000636492607958782,-0.00709328042058148,0.0138493989492455,-0.0904825880508751,-0.0302560860462799
79,79,0.175845926039426,-0.0401209402403574,0.952780252282493,0.000958473809764084,0.000513571446839356,-0.00741020008861547,0.0164376082159928,-0.0639922517180522,-0.0572454054815759
80,80,0.175851168677237,-0.0400519724096787,0.952772243059856,0.000873495008825572,0.00129374097698554,-0.00770156428719933,0.010464857596037,-0.0973016683775443,-0.0458544797934698
81,81,0.175838226485909,-0.0399902192255341,0.952763359492765,0.000101640302390473,0.00126692999590293,-0.00798389749828735,0.0305494759612603,-0.0495447687904607,-0.0596793969346402
82,82,0.175811653869127,-0.0399314858708469,0.952753781858433,-0.000957065245931724,0.000875428456477685,-0.00833161536130373,0.0341327717804271,-0.0455340546865146,-0.0577979543112834
83,83,0.175773112329615,-0.0398753272684789,0.95274375610564,-0.00215950270344932,0.000251729065543431,-0.00863529773497763,0.0381734827806446,-0.0553588905403999,-0.0922245368823708
84,84,0.175724263315783,-0.0398212983339413,0.952733527989126,-0.00349637989156981,-0.00030071657276079,-0.00883148301480963,0.0883670570852421,-0.0526733853267076,-0.0402499836422677
85,85,0.175666768288624,-0.0397689539610815,0.95272334303521,-0.00443582056086532,-0.000389851145328037,-0.00883786327936479,0.0359614300581443,-0.072195155531507,-0.0405120247156837
86,86,0.175592742723609,-0.0397198637601255,0.952712918346961,-0.00522298540739083,-0.000597572235942932,-0.0085401278955762,0.0295308315722446,-0.031213475173845,-0.0146050647367464
87,87,0.175501078976629,-0.0396743240918663,0.952702089076176,-0.0058802134519348,-0.000108746870678435,-0.00806585348253759,0.0789080650836955,-0.07515399554436,0.0127507569120444
88,88,0.175403603864962,-0.0396299800572831,0.952691278141246,-0.00626687857129863,7.50336129270654e-05,-0.00746518490833003,0.0292927256274778,-0.0259211567655008,0.00285677864818643
89,89,0.175312144135154,-0.0395844768617719,0.952680909539198,-0.00658347552282747,0.00048502096196463,-0.00686028914258851,0.0242921179200042,-0.0745778216891964,0.0163378898291575
90,90,0.17523852643843,-0.0395354598310629,0.952671408473249,-0.00651255885778678,0.000523916243107005,-0.00637716000926867,0.033733369365711,-0.0690873596691697,0.032202959562239
91,91,0.175185721711048,-0.0394815537358901,0.952662986330455,-0.00618663801896056,0.000422531378238542,-0.00601382285608462,-0.0138926107654146,-0.068554843631543,0.0289534181411548
92,92,0.175145845556234,-0.0394243284618779,0.952655360436416,-0.00521221447067416,2.61924105186356e-05,-0.00570979432943553,-0.0019415328539216,-0.0383500591759475,0.0116561179790622
93,93,0.175114441540065,-0.0393658470095001,0.952648215325808,-0.00428316777218354,-0.000440265597028229,-0.00543499179985479,-0.0444517730829858,-0.0656725465234954,0.0102666502403731
94,94,0.175087053164029,-0.039308172200433,0.952641235240164,-0.00362974734106541,-0.00070923379418936,-0.00519793395918465,0.0275781081789446,-0.0646876424400816,-0.000506248748337735
95,95,0.175059223866517,-0.0392533666849239,0.952634104202985,-0.00292463901289218,-0.00107972657128215,-0.00497226328130278,-0.0161205754750816,-0.0226924423961804,-0.0151342488175643
96,96,0.175031408385842,-0.0392017043880583,0.952626763852254,-0.00297842225999419,-0.00112060427890735,-0.00477818507567897,0.0317186918260354,-0.0620508978560802,0.000267551583989205
97,97,0.175006577635327,-0.0391518099422509,0.952619424747094,-0.00301947662251376,-0.000958831757129635,-0.00461039948291211,0.015325813254585,-0.0355275976296879,-0.00184953609953928
98,98,0.174984049400413,-0.0391032720444165,0.952612174156568,-0.00321342682205878,-0.000710265180017616,-0.00446639373771599,0.00779813495783863,-0.0675197549435336,0.00485063130646685
99,99,0.174963141610507,-0.0390556795227107,0.952605099342476,-0.0031867728402724,-0.000555248841757616,-0.00432968629505232,0.00624188470462751,-0.0659976652613755,-0.00552936427870166
100,100,0.174943172310426,-0.0390086213161506,0.952598287539845,-0.00315097148266163,-0.0004707501373353,-0.00418441999372168,-0.00213705172450589,-0.0687400566371035,0.0098719769735723
101,101,0.174924851089832,-0.0389612493993039,0.95259172833699,-0.00317402892925176,-0.000478855561473919,-0.00402709919716033,0.0124761165206233,-0.0665557474215011,0.0138574869883798
102,102,0.174908632798513,-0.0389138379438809,0.95258536359449,-0.0025907733471717,-0.000845780951855209,-0.00387001915929079,-0.030735004620009,-0.0223836950593198,-0.00494698016449879
103,103,0.174893453430269,-0.0388676592718318,0.95257920892927,-0.00246402069444089,-0.00119537435900824,-0.0037229014221047,-0.0142450291226101,-0.0683274742411581,0.00736045249786273
104,104,0.174878248972388,-0.0388239857211299,0.952573279936838,-0.00225005726381242,-0.00145796582333385,-0.00356742307853266,0.00558509334411248,-0.0385792441901994,0.0118057185364532
105,105,0.174861955402335,-0.0387840896275146,0.952567592189981,-0.00209871216944142,-0.00169752190981469,-0.00341608185457182,-0.00710083826177726,-0.041521141508312,0.00505626660866113
106,106,0.174844260930269,-0.0387483456795309,0.952562171996395,-0.00207544312026084,-0.00156996598680671,-0.00324417866768196,-0.0258824093468629,-0.0406583230854534,-0.0100814170292844
107,107,0.174825874973241,-0.0387159058084692,0.952557008980157,-0.00219550186358728,-0.0014646713563987,-0.00308981817991976,-0.00973471303455842,-0.0464482125505786,0.0227487919171094
108,108,0.17480726528028,-0.0386862081568245,0.952552063680784,-0.00228263373014563,-0.00121744226936654,-0.00291858799800653,-0.00856420758733188,-0.020769525502346,0.012949733286691
109,109,0.1747888995753,-0.0386586908066587,0.952547296643281,-0.00254069227406894,-0.00113508441120797,-0.00274745343925384,0.00587466864669919,-0.0493236365762964,0.00122598678176835
110,110,0.174771245560974,-0.0386327917874867,0.952542668422114,-0.00262884545591735,-0.00100020038631191,-0.00260809696511875,0.0286923301237439,-0.0426375641884295,0.0253018215579697
111,111,0.174755551372234,-0.0386098230277188,0.952538145342739,-0.00224746798781676,-0.0015106056754333,-0.00243543408874541,-0.0451244109487667,-0.0176146518969376,0.0070650504324767
112,112,0.174741505065266,-0.0385901591454991,0.952533753782593,-0.00212097385577685,-0.00204665863735429,-0.00225162301321718,-0.000960825862089816,-0.0434331694388816,0.0047389194692553
113,113,0.174727234241427,-0.0385718321312616,0.952529544381057,-0.00188737505177964,-0.00268667785186586,-0.00209368562858044,0.00109465348706888,-0.0459094998391964,0.0281466488232453
114,114,0.174710866565415,-0.0385528739363292,0.952525567767843,-0.00147026706704979,-0.00312288437305828,-0.00196444257682532,-0.0199751712964781,-0.0684529876417651,0.00145957536511484
115,115,0.174690529810272,-0.0385313164890785,0.952521874551904,-0.00138657710305587,-0.00343245901843915,-0.00188948823743988,-0.0381963860784298,-0.0406574365591762,0.030724367348839
116,116,0.174667895997311,-0.0385073683858715,0.952518654456157,-0.0016251403234675,-0.00319713542816796,-0.00190409275714797,0.00932234955716747,-0.051781373079029,0.0191860863806251
117,117,0.174644213333576,-0.0384823416003496,0.952515873843805,-0.00198257105235877,-0.00282603189797805,-0.00197618212765474,-0.0261697423609005,-0.0336304955019911,-0.0248387061251597
118,118,0.174616974047204,-0.0384559230672385,0.952513248209737,-0.00255581268523736,-0.0022794306328871,-0.00210106079489778,0.0249231210961218,-0.0391789815664469,0.0225759918712599
119,119,0.174583670469192,-0.0384277996426252,0.952510492980344,-0.00287210172314938,-0.00196139751808373,-0.00218159369783902,-0.0266047886796666,-0.0330853268177338,-0.0253182514079597
120,120,0.174541795054424,-0.0383976580364344,0.952507323475948,-0.00355319649677125,-0.00169291088646656,-0.00218824843777048,0.00163712929088182,-0.0456903136345797,-0.0162177521814357
121,121,0.174489333764223,-0.0383649919689781,0.952503369543533,-0.004167711707915,-0.00165573006088259,-0.00211734478049824,-0.00480503279025069,-0.0351920294387537,0.00415923483735749
122,122,0.174427958906889,-0.0383300095252707,0.952498820531573,-0.00506413547677907,-0.00161536629190712,-0.00198752559658898,-0.00272058279989839,-0.0169274071179332,0.00939436971023313
123,123,0.174360692536116,-0.03829346910624,0.952494231115844,-0.00577041972296777,-0.00172584327572989,-0.00182161296134915,-0.0237845951248562,-0.0429184176269559,0.0011941380464406
124,124,0.174290556603494,-0.0382561297408845,0.952490156411658,-0.00643344880650306,-0.00187844527361764,-0.00163359083907882,0.0231073518379215,-0.0236007580471038,0.0358271157766566
125,125,0.174220572850637,-0.0382187513775445,0.952487152063276,-0.006782354249387,-0.00203646037727624,-0.00142506160767543,-0.0394810421966098,-0.0284745647715375,0.00668636615390445
126,126,0.174148154484885,-0.0381828558337928,0.952485313197188,-0.00696412880587878,-0.00223183492864587,-0.00119175836953468,-0.0607518759387409,-0.0355136496334191,0.0175258541999945
127,127,0.174071286996887,-0.0381479378749002,0.952484270043119,-0.0070353007457728,-0.00245174127736126,-0.000912351365916793,-0.0960584359921467,-0.0458319720620522,0.037998716529432
128,128,0.173993850663361,-0.0381117180649588,0.952483881391145,-0.00763259499504754,-0.00249235874328964,-0.000622871918672085,-0.0149440599905612,-0.0412271774709507,0.036848232741163
129,129,0.173919726314555,-0.0380719174065989,0.952484006079953,-0.00738435741241363,-0.00231843592098481,-0.000365116789755921,-0.0782312289618945,-0.0726026048571439,0.0300168752772566
130,130,0.173852795524453,-0.0380262573805933,0.952484502839143,-0.00733188264027835,-0.00212432345233636,-0.000160065950006531,-0.0560013704580708,-0.0515300967841731,0.0164173900045284
131,131,0.173792289183712,-0.0379747529420342,0.952485721684026,-0.00703206864055385,-0.00175770777510744,-2.45958554115467e-05,-0.0557966592603089,-0.0618570317600811,-0.00135499440069798
132,132,0.173735621492203,-0.0379189278131612,0.952487757463811,-0.00680175605453034,-0.00117498815971667,7.05539313263224e-05,-0.0302460249964447,-0.0235196477106228,0.0102838803661445
133,133,0.173683949538572,-0.0378587663507113,0.952490085599135,-0.00636848891174894,-0.00035063582668984,0.0001222592087031,0.0091261021173024,-0.0435169529358481,0.0154469534971621
134,134,0.173638430146316,-0.0377942518163223,0.952492181092326,-0.00581079050050323,0.000295352770504537,0.000135078376134902,-0.0052341938476767,-0.0134270771816836,7.69025157103822e-05
135,135,0.173600219781446,-0.0377253659524893,0.952493518661111,-0.0055274650189853,0.000855916344698966,0.000100446037892502,0.0233063285388084,0.00488686610435055,0.0507087219220144
136,136,0.173571541141208,-0.0376522715680714,0.95249411668094,-0.00482817765380959,0.0014288937991044,-1.35473340498443e-05,0.009832151514292,-0.0155300506438275,0.00813057900768489
137,137,0.173551626167719,-0.0375749831427295,0.952494324481892,-0.00400373384409418,0.0018467545897975,-0.000217045258196567,0.0106310880894942,0.0206404065861905,0.0115849096724649
138,138,0.173537143149194,-0.0374932578323094,0.952494113534398,-0.00307768023425907,0.00244356238846643,-0.000438520956636654,0.00854113166009222,0.00875904718134945,-0.0204631641096985
139,139,0.173524757757668,-0.0374068519083241,0.952493456015079,-0.00217034540691413,0.00299294369365195,-0.000600489639587989,0.0179511169989618,0.0167713365176484,-0.0146216226632544
140,140,0.173511132576238,-0.0373155206438309,0.952492325065646,-0.00128859929155365,0.00349860156188692,-0.000640679959954295,0.0148352184869187,0.0239291362424195,0.00127235718739026
141,141,0.173492203246344,-0.0372146397810393,0.952490315205918,-0.000923773301670798,0.00370009336301824,-0.000519833420521095,0.0137996481400596,0.0526117189409572,0.0298675680385813
142,142,0.173470189465843,-0.0371043683181181,0.952487446817003,-0.000145221280673168,0.00403246966730525,-0.000292022244985011,0.0109995118147984,0.0634099765291325,-0.0114038473418481
143,143,0.173451176887752,-0.0369916393713075,0.952484332308117,0.000413369567387186,0.00436600207482908,6.90911160357474e-06,0.0284885924088049,0.0711258404251134,0.0475374677413967
144,144,0.173441250770611,-0.0368833918860504,0.952481583523442,0.00114607861686728,0.00459889313717338,0.000381526640410374,-0.00674481493369648,0.104202275319078,0.0475013565505676
145,145,0.173446496016066,-0.036786571105889,0.952479811823961,0.00196434828348503,0.00464473001586606,0.000768760746480596,0.0201483165316058,0.0955617641055044,0.0580360949643748
146,146,0.173461657686319,-0.0367035603038143,0.952479505272982,0.00305387689570078,0.00449641658932208,0.00120530069138341,0.0150479842259565,0.109687321920859,0.0880737904997517
147,147,0.173482671673901,-0.0366297439616447,0.95248025960535,0.00425129159347477,0.0039549032620559,0.00170206570713196,0.0197702030027034,0.120911436657109,0.0896931455847869
148,148,0.173517406469008,-0.0365615679030272,0.952481347287656,0.00565434335800757,0.00335473298751749,0.00221043586002682,0.0624136017251073,0.17166947876518,0.0691481772222972
149,149,0.173573727400171,-0.0364954691288704,0.95248204046133,0.00741042666062108,0.0027421795786261,0.00269692923211345,0.00373423190520803,0.140895774975376,0.0498376165694109
150,150,0.173659497022559,-0.0364278760002519,0.952481611685138,0.00932676845362126,0.00219891217757089,0.00315273272168525,0.01390618670765,0.137113583017854,0.0528471391968915
151,151,0.173779038805318,-0.0363578744915676,0.952479546888022,0.0113015634938715,0.00161160730988975,0.00353546976347587,0.0292083990439884,0.0936735183064138,0.0543690437553384
152,152,0.173927083623522,-0.0362878330735709,0.952476344010457,0.0132416778524605,0.00047449859828617,0.0039161721477554,0.034871599756249,0.0665032999313754,0.0600604285428111
153,153,0.174097120118035,-0.0362191094290713,0.952472788824455,0.0146484953082983,-0.00106218488583568,0.00427457491504201,0.078150760860568,0.00838120990568584,0.0690831616491689
154,154,0.174282658867677,-0.0361530767229041,0.952469656819279,0.015693747010963,-0.002629135105686,0.004592302287241,0.112458571239862,0.0192326320652992,0.106308453400013
155,155,0.174477231930495,-0.0360911238274373,0.952467712236144,0.0177206779759685,-0.00210372618865303,0.00482146789695822,0.0599404965387566,-0.0737428229722093,0.110720094598946
156,156,0.174680584122293,-0.0360548567508828,0.952466742190763,0.020570782282997,-2.17139379092873e-05,0.0050579552800395,-0.00803063430522003,-0.0986450372848457,0.150488582451834
157,157,0.174897070449241,-0.0360433865154268,0.952466234495099,0.0237788082035662,0.00276622045164005,0.00533780883666912,-0.132559365884235,-0.0593952275470227,0.0861971376032466
158,158,0.1751271295145,-0.0360243611566979,0.952466488468672,0.0251018289161885,0.00340885913989585,0.00559517439150637,-0.0689191426011486,0.119036652889744,0.100373436830354
159,159,0.175371169545559,-0.0359654143753782,0.952467789633477,0.0255460422769766,0.0038696750084754,0.00567715422459641,-0.0499409901726085,0.247804493909782,0.071653947481093
160,160,0.17562956742237,-0.0358341663368436,0.952470413777778,0.0258287088390863,0.00502307141485791,0.00541843181163955,-0.0311374251437779,0.313269389789572,0.0251858955977934
161,161,0.175931955350728,-0.0356332923107187,0.952474097690578,0.0256408173930462,0.00672550002524765,0.00467087602303372,0.0881731306314137,0.470446363959131,-0.674428652507897
162,162,0.176278033262876,-0.0353843871198258,0.952478637029478,0.0254909405074529,0.0094415064974448,0.0035243651279385,0.0910203863328999,0.394156320118793,-1.10595819698756
163,163,0.17662325742919,-0.0350834419322059,0.952484404819825,0.0251512267649439,0.012989367068025,0.00223567899326074,0.00901829097332362,0.341536702086372,-1.15584532834271
164,164,0.176923090260472,-0.0347264472530721,0.952491784768489,0.024077561782236,0.0171760675633215,0.00104302532293482,-0.0474049652968433,0.23609066985667,-0.83194905731046
165,165,0.177133000507058,-0.0343093943654749,0.952501171744068,0.0223978805578187,0.0217807116932601,0.000161793052600316,-0.14989084823375,0.157279795208584,-0.188991068692915
166,166,0.177252284961963,-0.0338215507936431,0.952513398189256,0.0193819241412317,0.0266929185385061,-0.000409527908002963,-0.0945097240105496,0.209209501247799,-0.125288524081
167,167,0.177310575492232,-0.0332656167063144,0.952528240963864,0.014172861511031,0.0314148011511711,-0.000780704821786038,-0.0756509623672276,0.215860718856508,-0.0779881445225099
168,168,0.177308864887679,-0.0326577282987009,0.952544520857938,0.00683987122135052,0.0367581540729885,-0.000961981336834335,-0.0160464673903428,0.188085851988676,-0.0392885828564268
169,169,0.177248172404717,-0.0320140107142486,0.952561055382625,1.68751111376765e-05,0.0431620355978389,-0.000996134913048621,-0.042383830661247,0.148453159502041,-0.0211947801402835
170,170,0.17712954657738,-0.0313505756768292,0.952576657501309,-0.00539711608578414,0.0488414659133658,-0.000909539868816602,-0.0772716637355166,0.167172988037696,-0.0528146510904539
171,171,0.176903794898664,-0.0306584831348752,0.952594811245669,-0.0111200310611847,0.0531033496290802,-0.000560057241008806,-0.0296138488344581,0.128423710838903,-0.0416473630954526
172,172,0.176570225147788,-0.0299269928284726,0.952616361227373,-0.0177569108611845,0.0566711892269055,5.47118551918914e-05,0.0253459099366862,0.0865967032515692,0.00147475906933305
173,173,0.176202666647463,-0.0291695158974205,0.952636160529985,-0.0240724949384449,0.0594033300030168,0.000822465827049904,0.0193794112008658,0.0960123748393838,0.00620744545172511
174,174,0.17587495808862,-0.0283994737273728,0.952649077062814,-0.0289832810610964,0.0625390972725707,0.00158567464372247,-0.0301156286945259,0.0473396875942431,-0.00652000974295931
175,175,0.175660947688841,-0.0276302837591837,0.952650018839701,-0.0313272802253311,0.0654477470589658,0.00221996086584527,-0.0338114354514009,0.0326664057094189,0.00487951082957312
176,176,0.175571392722039,-0.0268595464842043,0.952639596582731,-0.0304339796324614,0.0688336018350843,0.00279256788592107,-0.0821605568300471,0.0112144199989193,0.00642038769991329
177,177,0.17555710209278,-0.0260782820330154,0.952621459200453,-0.0283328990505675,0.0723997577909107,0.00341922721213818,-0.0457318060038269,0.0079876374296255,0.0511620313728947
178,178,0.175602009793356,-0.0252900185809334,0.952595079830189,-0.0258556398825171,0.0760800076354324,0.00405317902603391,-0.0922210932085555,-0.0383816872795166,0.0584397462270628
179,179,0.175690047220744,-0.0244982928357207,0.952559842095081,-0.0217144537998133,0.079379431906477,0.00449715718530228,-0.123235447936977,-0.0723760501861931,0.0656459421571607
180,180,0.175805141317062,-0.0237066595332859,0.952515013034683,-0.0168933096953593,0.0811314968066488,0.00466005665329504,-0.0872522347029144,-0.0545948308062427,0.0606990711604118
181,181,0.175980859974171,-0.0229109926849476,0.952455530784578,-0.0112687272753231,0.0813615043565582,0.00446845920668779,-0.088553600990158,-0.064484020780001,0.0368372735093491
182,182,0.176227958199728,-0.0221088280336791,0.95238210849536,-0.00196180842593011,0.0804546928713992,0.00378802127058265,0.00123009267493442,-0.0810134267391682,0.0358037119564157
183,183,0.176496134226631,-0.021306253271479,0.952302422364124,0.0078314950976783,0.0794549702552523,0.00289588421581548,-0.00578138302407144,-0.12025210115656,-0.0177800973865929
184,184,0.176735077207741,-0.0205093972035667,0.952223925510039,0.0153548165682962,0.078770638406045,0.00204147193478569,-0.0588369876241428,-0.144025149385125,0.00232197607015798
185,185,0.176894467556783,-0.0197244318467448,0.952153860676412,0.0194657642693044,0.0781071683379968,0.00132917079939491,-0.00844303863093014,-0.0679462971792194,0.0389689890445982
186,186,0.176960535629696,-0.0189557995360928,0.952092623566136,0.0205665248972393,0.0780853624200928,0.000709167333570545,-0.010407570815841,-0.0214634371509592,0.0276677560486265
187,187,0.176966834153166,-0.0181993762403906,0.952035087636385,0.0199750231641464,0.0786149641391551,7.03930247832143e-05,-0.120098952359625,-0.0258704771844533,0.0378548236403552
188,188,0.176934030088805,-0.017448494086526,0.951980125335734,0.0184281885119562,0.0793277154420047,-0.000549853290021806,-0.134198197643086,-0.00439439159996986,0.0113383713158629
189,189,0.176882801884017,-0.016696469356032,0.951926659698352,0.0165578127230869,0.0798108499586023,-0.00111539532015881,-0.153659384994009,-0.0736473826446403,-0.0111762013330243
190,190,0.176833839054941,-0.0159366091652603,0.951873655816482,0.013915941571812,0.0798092378869366,-0.00156782583428298,-0.0916664698166058,-0.0525075490505196,0.0562970447893184
191,191,0.176794607808206,-0.0151701679770259,0.951821586597544,0.0116308783649125,0.0784878732109203,-0.0019422438040537,-0.123819190045881,-0.0615515015685399,-0.00847947742647416
192,192,0.176751352347849,-0.0144015475398198,0.951771026560307,0.00847087588625745,0.0769731165851753,-0.0023135126656043,-0.0130386322852641,-0.10976148186038,-0.00919492172101889
193,193,0.176692923129659,-0.0136287867744979,0.951721146335556,0.00456714179199881,0.0752605952105012,-0.00254186685500765,0.00656358559506582,-0.140151221232519,0.00761917282799328
194,194,0.17660815227859,-0.0128499399757768,0.951671143541966,0.000740867872355443,0.0742666634707441,-0.00252745114604772,0.0137114585658598,-0.155647821099533,0.0562828851902647
195,195,0.176485854749699,-0.0120630754199003,0.951620239675532,-0.00281469479798815,0.07445464022035,-0.00209968533343761,0.00121793280111755,-0.212039742096818,0.0466441916656642
196,196,0.176298407976943,-0.01126998574899,0.951566677099523,-0.00677137454494567,0.0752819289675369,-0.0010906547563596,-0.0139921969861189,-0.224264461133915,-0.652024695216835
197,197,0.176053256229529,-0.0104719531513591,0.951510962495444,-0.0111994217209746,0.0758776698725272,0.0004001751610182,-0.00251284144768587,-0.142738408626632,-1.01158797920703
198,198,0.175791801437658,-0.00966629936260817,0.951455715478739,-0.0157213371327036,0.0767517691744501,0.00214977381839734,0.0202717089016613,-0.0875349980670889,-0.968798937594287
199,199,0.175555442419069,-0.00885036583440122,0.951403543280723,-0.0192605336870295,0.0784066254709996,0.00390897889781268,-0.0215349645474468,-0.091452944366159,-0.534879584589048
200,200,0.175385575004938,-0.0080215378977189,0.951357091766705,-0.0209053657783218,0.0800790270506545,0.00555737156642478,-0.0870677067883365,-0.100535713321777,0.274212752771615
201,201,0.175279464405418,-0.00716693689986599,0.951311404278739,-0.020158269622781,0.081257724053824,0.00742418456918615,-0.137174578304611,-0.0850270258577553,0.292111805238523
202,202,0.17520947534683,-0.00628845735859513,0.951264861514327,-0.0175122226875571,0.0829104940001076,0.00963714306873371,-0.192494926735002,-0.11198315538929,0.278526279792715
203,203,0.175179671265309,-0.00540570447704203,0.951225268874857,-0.0140280378585928,0.0839667856054166,0.011774208682175,-0.195830302606552,-0.110084965335489,0.323592902042461
204,204,0.175194147862538,-0.00453829144726609,0.951200552166772,-0.0100083539027302,0.0840320058385523,0.0133956558915847,-0.195067475276298,-0.134780921960295,0.28772396629267
205,205,0.175257035849374,-0.00370582984562605,0.951198799005488,-0.00568730973040667,0.0829550219850485,0.0140617140621617,-0.116515009407822,-0.201435671460439,0.221743534605757
206,206,0.175385414356137,-0.00286943115656859,0.951222482695411,-0.000711992649690412,0.0802146994833777,0.0132007695543904,-0.110154055295842,-0.214623924934769,0.181711801807251
207,207,0.175576563083854,-0.00201650057749758,0.951267283577671,0.00601183510735321,0.0765590721935168,0.0111703254958188,-0.084792612017511,-0.267292870648537,0.0914050887039865
208,208,0.175804936964973,-0.00120583413332179,0.951331127520237,0.0133820272559481,0.0721965264495849,0.00866494100788601,-0.00197524545234674,-0.216454939053167,-0.00077665169806222
209,209,0.176044982293079,-0.000495803261393787,0.951411698637448,0.0183763881305013,0.0676677174706219,0.00652855388806567,0.0706105018498521,-0.173455593787362,-0.0450826947291236
210,210,0.176271126853896,5.5710917961074e-05,0.951506363827803,0.0205398233030605,0.0623812478618334,0.005456476847,0.105604118550826,-0.0951704324755274,-0.142227983869161
211,211,0.176528948360344,0.000395014580458821,0.95162116361404,0.0199046553187652,0.0548207251428511,0.00550358724126166,0.162156077807873,-0.0624774262890485,-0.109790285624697
212,212,0.176835387977359,0.000561389823449691,0.95175891815109,0.0171206793305398,0.0446851711844485,0.0060743179983309,0.249052545266512,-0.140741336644283,-0.0149838167659948
213,213,0.177121906248644,0.000636856364012726,0.951911490995136,0.0137263624029017,0.0328588338746201,0.00723872995982784,0.318865607326607,-0.216030326127061,0.0411698132559173
214,214,0.177320036848833,0.000703456868240154,0.952070147379007,0.00990296938549259,0.021815735643031,0.00866976657971598,0.347710645228522,-0.324745020855396,0.0559829868389222
215,215,0.177361442775279,0.000843181524811023,0.952225535299887,0.00618367781982647,0.0134473120070213,0.0101333301151642,0.384919316121064,-0.361963683152142,0.0670693582244014
216,216,0.177205532877436,0.001069234778219,0.952383068118396,0.00238836046316499,0.00879442998567045,0.0118512550660156,0.403397701079295,-0.482506946400036,0.0469653335817417
217,217,0.176897978703362,0.00132812363553174,0.952548787404789,-0.00249173492565225,0.00619900167126151,0.0139447567928806,0.386420255731289,-0.564222775053159,0.0485937372418416
218,218,0.176499924447435,0.00160113373114914,0.952713537478749,-0.00834188138102392,0.00519493053631122,0.0160987997648411,0.413217356738993,-0.742798931635085,0.00900788366205549
219,219,0.176072434144847,0.00186877530080806,0.952867767485749,-0.0142697679440424,0.00497194252711705,0.0178496938549663,0.476633746806874,-0.836196157626145,0.0218759380245169
220,220,0.175676477019252,0.0021108389721092,0.953001578814368,-0.0189316542980697,0.00464227123207913,0.018814015572338,0.509074442552035,-0.872631274898012,-0.00544180201552716
221,221,0.175274017390269,0.00232670805878854,0.953111897954739,-0.0220808457818419,0.00448002266599095,0.019122627685581,0.525671845263718,-0.823152522481466,0.0183428780530636
222,222,0.174824396347424,0.00252910696955548,0.953204255663266,-0.0232956895906817,0.00420168848535516,0.0191266656687878,0.526676202875012,-0.618568358811474,-0.00616553320331188
223,223,0.174384617069338,0.00271736897903668,0.953281522652096,-0.0222022798177486,0.00403781909664702,0.0187239833220292,0.329874645114988,-0.524027663261858,-0.0516353268214723
224,224,0.17401172411622,0.00289084720171072,0.953346697302636,-0.0192919920540393,0.00289167444266308,0.0177071143525239,0.194078360693043,-0.37549368992503,-0.159105879070143
225,225,0.173762795350776,0.00304893703219963,0.953402907406337,-0.0155639478428111,0.00137186677747708,0.0159561911293933,0.127528480954525,-0.35632129120204,-0.180983486852264
226,226,0.173667734398107,0.003209394276139,0.953446872665811,-0.010150259651665,-0.00057364185711982,0.0130803943976026,0.00466363467036641,-0.282731997172169,-0.253071610546383
227,227,0.173688538542054,0.00337215020180111,0.953476004461238,-0.00329237483585579,-0.00169522228104393,0.00917009049708755,0.0320745756131934,-0.293366789103716,-0.320849634717111
228,228,0.173780420349824,0.00351000697008216,0.953494624280664,0.00375973902749491,-0.00190372602941649,0.0048091327466572,0.041880481530667,-0.269573475617555,-0.348324587778467
229,229,0.173898587513586,0.00359585984921496,0.95350712414907,0.0101564802461221,-0.00245789786337696,0.000604749646412432,0.0923690676335767,-0.240967591112684,-0.419799381444243
230,230,0.173998261354124,0.00360265680844586,0.953517941116515,0.0145024677393857,-0.00346883280934265,-0.0028676297033889,0.144562217753785,-0.235314352828765,-0.453675230692374
231,231,0.17407793866707,0.00352570364589329,0.953522760748241,0.0168224435463697,-0.00597050125042595,-0.00563560771845181,0.177447334705853,-0.2127555470975,-0.446030573009866
232,232,0.174167445710343,0.00338298458015885,0.953518489563536,0.0170068182774607,-0.00947999640577699,-0.0081426297196743,0.234902142830762,-0.199288926575542,-0.368866169922802
233,233,0.174269018583536,0.00318150786382084,0.953511437545753,0.0164194696028811,-0.0138967952895683,-0.0102685973760177,0.228580428453904,-0.188791889867603,-0.346221649736133
234,234,0.174384909647049,0.00292829873348537,0.953507930112676,0.0158604827579628,-0.0183305721365788,-0.0118839773798336,0.265451185020824,-0.179474493128341,-0.318695990300496
235,235,0.174517393266011,0.00263039227145604,0.953514302502359,0.016035711576586,-0.0220543574139586,-0.0128581994263176,0.292464942194146,-0.214200688952828,-0.22855786743015
236,236,0.174654821437886,0.00228063641446701,0.953532388014932,0.0169873652553157,-0.0251316391438004,-0.0128603395805701,0.291200188312905,-0.219935312650303,-0.147052406112794
237,237,0.174795705556141,0.00187438056033163,0.953557968110829,0.0186052767642527,-0.0290536987593062,-0.0119038206111669,0.24476578033897,-0.175066112945763,-0.0870109278762037
238,238,0.174957586134878,0.0014224140612985,0.953588312536887,0.020787349702097,-0.0329858879971784,-0.0104376304789319,0.173576120408077,-0.200026784833045,0.0140233619476872
239,239,0.175158009893855,0.000935510337063583,0.953620693569497,0.023877423343755,-0.0382461999753448,-0.0088780191058108,0.00803305771511879,-0.0835192103914575,0.000967858520978958
240,240,0.175414521085777,0.000424414604216826,0.953652379042061,0.027057340813845,-0.0431823438630193,-0.00777924367381938,-0.0701132296220681,-0.0651181076512493,-0.0179260045673157
241,241,0.17573627305826,-9.97386547880514e-05,0.953673055858382,0.0299263853821272,-0.0477778599022259,-0.00721674972795904,-0.147020217278681,-0.0635958894505255,-0.00332726531720403
242,242,0.176111638437085,-0.000644130046788673,0.953684640045868,0.032532844522478,-0.0525551954242763,-0.00687290250297693,-0.209880651382123,-0.0786701001755435,-0.0485471666080875
243,243,0.176526944037412,-0.00122551597151748,0.95370271073554,0.03388229096642,-0.056893028529309,-0.00684166213590063,-0.190116306842691,-0.0320630015949011,-0.0545479806050843
244,244,0.176968462629735,-0.00186064439221639,0.953742799079002,0.0348866513304017,-0.0607102764246033,-0.00700147135349103,-0.163863156175841,0.00206480713139415,-0.142172058192534
245,245,0.177422415221487,-0.00256624945855691,0.953820382489968,0.0353576742383077,-0.0644577165785795,-0.0073279512137106,-0.14733427987544,0.0686567283990999,-0.186503397147948
246,246,0.177920308003651,-0.00337002089401716,0.953971301182714,0.0352129197576618,-0.0685984680150104,-0.0080156606029229,-0.16939043209058,0.133312489455449,-0.187451863321266
247,247,0.178471252417882,-0.00426082959964341,0.954185243856403,0.0344208193712214,-0.0732678849456283,-0.00912243373647154,-0.196805893201883,0.126631569297834,-0.172895147736558
248,248,0.179027838610772,-0.0051971805932678,0.954408419073142,0.0338035650643049,-0.0792863907416643,-0.0103341779021973,-0.122934015985536,0.0720662020020614,-0.236218256901629
249,249,0.179542653954874,-0.00613760428774128,0.954587032930859,0.033046074182501,-0.0861406346545218,-0.0114105209680499,0.0194162693075228,-0.0194592276907774,-0.208450990345824
250,250,0.179968290640698,-0.0070406490400086,0.95466731459229,0.0329374625900819,-0.0931776677102862,-0.0121460176658444,0.0558692206010559,-0.176488541900338,-0.271687455254079
251,251,0.180281257834125,-0.00788146878045391,0.954621243006378,0.0329983304414724,-0.100051604195498,-0.0121981021322932,0.0944697018613763,-0.34998299180383,-0.244432905174117
252,252,0.180513094375821,-0.00868779615799069,0.954484799698358,0.0338693988776897,-0.10648098561614,-0.0114804937366764,0.0124545112827611,-0.512712814979438,-0.0750382179973177
253,253,0.180698970785387,-0.00949697349220901,0.954300261050541,0.0354690146173991,-0.11261627061763,-0.0104565241854085,-0.00810075965864682,-0.528613109907682,-0.287346693506351
254,254,0.180874083539429,-0.0103462443305568,0.954109871529284,0.0369172445365754,-0.118024162020649,-0.0103929773310235,-0.0142601915858036,-0.609780244124589,0.0128477885421882
255,255,0.181073660221432,-0.0112727515753328,0.953955823539166,0.0382999518525285,-0.123495677885288,-0.0106463363943689,-0.0186251471101414,-0.486598541493507,0.0643668171739736
256,256,0.181309469390842,-0.0122874621584628,0.953850044625553,0.0397922859195175,-0.129110733654446,-0.0117647325205974,-0.0344081837824096,-0.423168995052822,0.0111583584666206
257,257,0.18155811207083,-0.0133653840480057,0.953764659324682,0.0417762445576962,-0.136376862827796,-0.0132687796918459,-0.136501930689906,-0.27293581375663,-0.0617742623945126
258,258,0.18180210409316,-0.0144896974320596,0.953681999505182,0.042817384196063,-0.144046311442448,-0.0150863938087291,-0.140424043342089,-0.254584993806572,-0.0427029095692974
259,259,0.182023941609921,-0.0156436598577577,0.95358422332738,0.0431399077534862,-0.15030181875985,-0.0170052912123624,-0.109390809154986,-0.245531224137783,-0.118444971478806
260,260,0.182206076088493,-0.0168106162975633,0.953453312317637,0.0421225744837234,-0.154591134344772,-0.0190078948176284,-0.136915443986812,-0.173732930741013,-0.162777019069359
261,261,0.182347665131435,-0.0179944705185633,0.95327561195164,0.0394042727507126,-0.156362258923887,-0.0211811240514723,-0.159258027695547,-0.130931755229851,-0.202120115115437
262,262,0.182460464480612,-0.0192062656278305,0.953062984413478,0.0343213082074154,-0.155721713791119,-0.0237499916237197,-0.0225482984499495,-0.0854236955936249,-0.136614587060176
263,263,0.18254575396373,-0.0204401442031511,0.952835580350973,0.0287655919538503,-0.153197447787622,-0.0263407252670865,-0.0124785485591038,-0.0431673764661512,-0.134670772738649
264,264,0.182604791997692,-0.0216902734386492,0.952613564482499,0.022897571702,-0.150520860284566,-0.0285592356151928,0.0932166710553409,0.0142325396386443,-0.133444845631249
265,265,0.182638824501032,-0.0229508379585663,0.952417112086876,0.0183688118306017,-0.14893610743948,-0.0300652488909759,0.124459622451359,0.0274072181331196,-0.178898715826122
266,266,0.182626170547328,-0.0242189960817031,0.952241894499848,0.0140473285439733,-0.148892485337687,-0.0313320380038226,0.190233367663491,0.0510017591515895,-0.134996103269361
267,267,0.182565934324326,-0.0254986426323547,0.952074317907215,0.0100056829474289,-0.1492240484638,-0.0326031462626154,0.101777062284194,0.046841147360504,-0.112835148599913
268,268,0.182490573517835,-0.0267940447403775,0.951920748397353,0.00597653860791554,-0.149226829247439,-0.0332099295202403,0.0351809025405701,0.018531945009236,-0.0372956347194459
269,269,0.182432604239424,-0.0281094345272067,0.951787655158578,0.00252383961199502,-0.148220902399263,-0.0325942522712014,0.0505697009998084,-0.102275904814174,-0.00425381123583865
270,270,0.182424606955646,-0.0294490116958967,0.951681613968816,-0.000500942815000552,-0.145727394183322,-0.0299903231446375,-0.0382392920725913,-0.170211301541179,0.158000988763471
271,271,0.182496122460026,-0.0308708574922974,0.951609600951744,-0.00242687621309382,-0.141464669380316,-0.0238289585151197,0.0368351698767717,-0.394754404458908,-0.318006290939314
272,272,0.182625579827606,-0.0323719406526153,0.951567524047954,-0.00370196542277663,-0.138002423467023,-0.0146354012013034,0.111830168133794,-0.272235849680947,-0.427998200225938
273,273,0.182768888940636,-0.0338649674882225,0.951545239433846,-0.00216666272192079,-0.134353035816648,-0.00443476618636421,0.00386181634764067,-0.217509519924531,-0.288540882670326
274,274,0.182881862514577,-0.0352629319471174,0.9515322992019,0.00148556808806912,-0.130027974775118,0.0046710879894807,-0.0524064857465095,-0.174376001577028,0.161597336789346
275,275,0.182920206644463,-0.0364790872700849,0.95151798914963,0.00586142105772194,-0.124179603762384,0.0105594867186043,-0.0974078578383873,0.0409605392826887,0.851800244153245
276,276,0.18283986221411,-0.0374767109240533,0.951511527210935,0.00911756096801143,-0.115873404158998,0.0128228509740663,-0.209149652909961,0.150491833305139,0.560254425020347
277,277,0.182670277757487,-0.0383140745042543,0.951519742354186,0.0106535292227411,-0.10664090926125,0.0128611713920529,-0.213752921593755,0.166171257350061,0.265151698764155
278,278,0.182477352150859,-0.0390469294509415,0.951528329334374,0.00972710957365467,-0.0977959046913136,0.0111167940110095,-0.137964437168275,0.10810427418606,-0.0329974053743566
279,279,0.18232699629045,-0.0397308765913789,0.951523069365686,0.00720967404729058,-0.0901185317476646,0.00812232224679857,-0.0393445571295126,0.0525289401379653,-0.27089292942019
280,280,0.182285136407294,-0.0404213894844457,0.951489800838898,0.0039840537518338,-0.0848639261309973,0.00443518967558353,0.0933332077167085,-0.103543990419625,-0.448819807992283
281,281,0.182415972518489,-0.0410912336140901,0.951421725380439,0.0012381822000323,-0.0819713194230048,-0.000862864232651397,0.129421174073647,-0.207442504726958,-0.521990757381275
282,282,0.182675506145837,-0.0417033754418455,0.951328497282843,-0.00112361436208794,-0.0810670485597827,-0.00814024769765649,0.221979979151144,-0.266193975067619,-0.568324486202339
283,283,0.182967396532875,-0.0422984673602651,0.951220614978096,-0.00251479910013021,-0.0811160334695134,-0.0157845751173594,0.162529677072795,-0.299079673379305,-0.585385518253644
284,284,0.183195318245751,-0.0429171326721164,0.951108423930344,-0.00342521786867503,-0.0813176384076681,-0.0224035652147312,0.0920197681616891,-0.307014089277584,-0.536628529619236
285,285,0.183262948949566,-0.0435999802646118,0.951002101613528,-0.00478517666074682,-0.0809667038994061,-0.0266159749536088,0.115166427409682,-0.202251533924772,-0.413069723301218
286,286,0.183153087525907,-0.044353513470058,0.950894016051056,-0.00870745607500612,-0.080120880593292,-0.0279551449326267,0.280061483559499,-0.163833808362298,-0.264752206315409
287,287,0.182929919379954,-0.0451505477006449,0.950777281995335,-0.0141945441731925,-0.0796610342304739,-0.0273390766878033,0.355535171336748,-0.126684870837093,-0.103102151001392
288,288,0.182619196400768,-0.0459811949740705,0.950663052192734,-0.0195234827580732,-0.0799514347851227,-0.0255825597236073,0.396641240165107,-0.0859396691819977,0.0192883978568148
289,289,0.182246672045754,-0.0468356079227249,0.950562451968361,-0.0237561755701499,-0.0811057868396757,-0.0234801293656878,0.423182016224093,-0.0515984684365362,0.113835385058762
290,290,0.181838104971643,-0.0477039762113158,0.950486598927773,-0.0266731083122775,-0.0826561087457099,-0.0217892596014213,0.474436915615401,-0.0170780148388732,0.150459564144521
291,291,0.181356921922887,-0.0485747393984413,0.950440290263978,-0.0270800836268837,-0.0856957360180114,-0.020510454726789,0.459187544422362,0.0622595308730549,0.141919852193255
292,292,0.180785842304201,-0.0494544961212194,0.950415988804994,-0.0261089743700345,-0.0896945371056614,-0.0191109126993267,0.418027504272207,0.148386824548664,0.0732489190160575
293,293,0.180179625787401,-0.0503607003889339,0.950406360231723,-0.0248866815981551,-0.0934854626706957,-0.0175615637595345,0.451366619705999,0.124263617911729,0.0781796955808245
294,294,0.179593117838871,-0.051310788509042,0.950404107855607,-0.0241062345731726,-0.0968503702666046,-0.0158450628158804,0.402983546845644,0.0870160240413919,0.0214944100064161
295,295,0.179081254576812,-0.0523221617428685,0.950401954708058,-0.0250997470768093,-0.0997876204778714,-0.0139099143272049,0.368097510433927,0.136045245273973,-0.0422744475256174
296,296,0.17864228807945,-0.0534294633258724,0.950409299737137,-0.0285600977331067,-0.104165685666849,-0.0117268486094082,0.305796431604226,0.188262332610787,-0.0174130864579904
297,297,0.178239705148907,-0.0546210857157578,0.950431041924704,-0.0328427532369564,-0.110431441126075,-0.00927561741071553,0.249961851273068,0.270706097081349,0.0442451478860544
298,298,0.177876333580779,-0.0558450204781616,0.950453131090198,-0.0370984661997387,-0.11695372787023,-0.00667435105784475,0.153552394444938,0.282092632601562,0.097040039289617
299,299,0.177554962214989,-0.0570492788655454,0.950461468144458,-0.0405401936591522,-0.12162990071666,-0.00404041907038785,0.0232286936470239,0.203744812530672,0.150108439775606
300,300,0.177278339928345,-0.0581819026922036,0.950441920680463,-0.0416623703474332,-0.123583014318409,-0.00153667006755678,-0.0512301670650004,0.100748578624611,0.180927730417779
301,301,0.177014297279594,-0.0592576461596998,0.950394824910986,-0.0407548565610862,-0.121556934017744,0.00118217588159853,-0.142791840955364,0.0187818260478193,0.258470904565503
302,302,0.176761032771353,-0.0603111705595974,0.950329589963617,-0.0382350949998859,-0.116682185065505,0.00419702593117513,-0.195344200933413,0.014895577436211,0.278459607158299
303,303,0.176566788126141,-0.0613203960093903,0.95024571271111,-0.0336139825502271,-0.109242003332012,0.00713948157903673,-0.301284815952929,-0.0787079933498104,0.299893892382725
304,304,0.176479762191949,-0.0622632221817812,0.950142721358687,-0.0279165387869042,-0.101955548800791,0.00943027383031866,-0.407192268791523,-0.0453288637043082,0.34306882622102
305,305,0.176548116888992,-0.0631175000359895,0.950020188736375,-0.0215615206755045,-0.0954673061183956,0.0106536573834856,-0.520013803518231,-0.0637692428180292,0.361419760571323
306,306,0.176849250075393,-0.0638563068440492,0.949876190374585,-0.0145779129500915,-0.0895323069902357,0.010668041971226,-0.481022207401522,-0.0645839720958241,-0.515075784495798
307,307,0.177351006270931,-0.0644942146489669,0.949711261562788,-0.00649136036795316,-0.0829597120900246,0.00966707145647936,-0.438856636232265,-0.000422164377517349,-0.948836821622889
308,308,0.177937188218897,-0.0650713337694648,0.94952868058866,0.00136160005880845,-0.0767345255293622,0.00805636476720626,-0.409102885445623,0.0941632454818999,-1.04475969950164
309,309,0.178491571355273,-0.0656279153357679,0.949331687218056,0.00815473743208088,-0.0710288675270352,0.00628025881110748,-0.491796966678213,0.163438192846256,-0.744277421295318
310,310,0.178897898426975,-0.0662043795984655,0.949123481384094,0.0119414203914766,-0.0665984274713176,0.0049135325275812,-0.571328088504959,0.221650307215958,-0.0559621329931498
311,311,0.17912819804438,-0.0667928210511291,0.94889380538437,0.0114528931704347,-0.0631308624466097,0.0038713191777931,-0.494260179948371,0.157345062289603,-0.0293833446618316
312,312,0.179259832798345,-0.067366422536721,0.948640967653988,0.00720654896578382,-0.0609908194947218,0.00288973653517111,-0.41119448985517,0.202660497637664,-0.0284450767620331
313,313,0.179334584697224,-0.0679373131179188,0.94838082992073,0.000268671580507481,-0.059746089964203,0.00192021978480243,-0.22742594638422,0.300085195591323,0.029567280784708
314,314,0.179394318578614,-0.0685175276613705,0.948128989095678,-0.00636957172535605,-0.0581600926642715,0.00123237015172995,-0.126718815313622,0.301457893092439,0.112448044568673
315,315,0.179480998925366,-0.069119009864981,0.947900768573285,-0.0103061680893573,-0.056144448492325,0.00107994769454147,-0.0356983856068055,0.24401591421911,0.22380213798234
316,316,0.17961090477016,-0.0697557564938365,0.947685780185494,-0.00937414234747053,-0.0546045017247062,0.00177626327035762,-0.0622758881899829,0.139459386235792,0.291709420417981
317,317,0.179756294709341,-0.0704195842316972,0.947473829910525,-0.00538117358958026,-0.0553212202092248,0.00298758606252878,0.0144728792861047,0.137079385281477,0.313208156718552
318,318,0.179893047279917,-0.0710893712828003,0.947280271955596,-0.000517780467508017,-0.0595866758841189,0.00411192005118067,0.0746557141490847,0.391698000189716,0.301793871423202
319,319,0.179996776221271,-0.0717443023745329,0.947120278752163,0.00356349346248122,-0.0629177907417229,0.00478955458803313,0.15775102324083,0.481558209342754,0.226667688160815
320,320,0.180042884166339,-0.0723638631564317,0.947008857212383,0.00702046577306671,-0.0612635185782201,0.00488612590974352,-0.00560876547416374,0.370982042159896,-0.0883640998294801
321,321,0.180029861980727,-0.0729570957304148,0.946961302879462,0.0071521736704718,-0.0562511190782372,0.00432172831187183,-0.192945069043989,0.339899578241227,-0.218118840931951
322,322,0.179974063208415,-0.0735386290104462,0.946967485725663,0.00526028715261533,-0.0499954917739003,0.00305219369266545,-0.307783283872051,0.362897172121301,-0.217811291886968
323,323,0.179877671836225,-0.0740960658175498,0.947004141940863,0.00171213389196321,-0.0448240743251954,0.00129268266940436,-0.279534178225661,0.349159801133483,-0.134905289896471
324,324,0.179742809154344,-0.0746163119853526,0.947047875267584,-0.00340657203723117,-0.0421543864703902,-0.000757920696029784,-0.201522141818591,0.384368278017898,-0.00878597153819577
325,325,0.17957147654699,-0.0750856406929899,0.947075145416385,-0.00807204305677464,-0.0407325143868551,-0.0024416969147884,-0.102740531864702,0.428584762566873,0.0422710204788019
326,326,0.179376483528722,-0.0754991142468461,0.947086130384416,-0.0111979435989797,-0.0381704195871421,-0.00322155790534021,-0.0695831321595155,0.397149349398769,0.0820756559531391
327,327,0.179156505189164,-0.0758653133228458,0.947096282003481,-0.0125229277731199,-0.0347348764893137,-0.00338543833152603,-0.155566922831731,0.351366189735771,-0.00407518904218991
328,328,0.178892249225473,-0.0761904551036631,0.947104817614931,-0.0140940692627759,-0.0308450784180859,-0.0034080556458335,-0.0793400122986689,0.322986744261064,-0.0688025119442569
329,329,0.178564413554551,-0.0764808190035628,0.947110899740053,-0.0162490200591766,-0.0268575589502159,-0.00350633998901077,-0.0329547883900135,0.277131476993338,-0.165148061926474
330,330,0.178153691403782,-0.0767427450446131,0.947113666054097,-0.0195758609677028,-0.0233961976035939,-0.00403038449055129,0.0120071722552632,0.267528527802818,-0.17588381102053
331,331,0.177654266565389,-0.0769823977777695,0.947116614457235,-0.0239254153753807,-0.020262746709774,-0.00486932167266654,0.063946614063264,0.280738513379895,-0.198715912504594
332,332,0.177078964292619,-0.077195507138141,0.947120140446391,-0.0285467067880434,-0.0169383231163589,-0.00573177410615531,0.105204046994497,0.259248104649991,-0.207917709516786
333,333,0.176436459233524,-0.0773728722037529,0.94711878797933,-0.0341851427349362,-0.01311097341496,-0.00649610819409604,0.106773941650835,0.179665433196881,-0.181634237122014
334,334,0.17573543679327,-0.0775052979460641,0.947107138033472,-0.0393886099185762,-0.01040737721552,-0.00712528401027647,0.022775511446359,0.249309676150773,-0.209424523172417
335,335,0.174984597555539,-0.0775835223508702,0.947079778669579,-0.0444032393494402,-0.00788905168713263,-0.00764542110326295,0.0712253223288296,0.233407303733054,-0.199433908222729
336,336,0.174114671350178,-0.0776079222468075,0.947038431648412,-0.0494681931686632,-0.00630934459717123,-0.00788587442517479,0.0364299958212847,0.278683328182572,-0.153652424898228
337,337,0.173119853303185,-0.0775847995948342,0.946986884872565,-0.0547158417736697,-0.00508722969172625,-0.00797653695766706,0.0175812469714433,0.301810860478746,-0.131561902392833
338,338,0.172104070389702,-0.0775136574642173,0.946922746215695,-0.0595569682813268,-0.00412993330209627,-0.00802223049039462,0.0163491215414823,0.337122986951807,-0.0924297340732421
339,339,0.171171255168618,-0.0773939369962663,0.946843486439357,-0.062600473363595,-0.00218475922860769,-0.0080591766121004,0.0454193193653385,0.358157479823829,-0.0961789386335563
340,340,0.170425346291318,-0.0772250279692606,0.94674643492993,-0.0637967678308431,0.00151056270044724,-0.00825251272178988,0.0987797541220129,0.388809229952295,-0.0932335456917107
341,341,0.169865033356132,-0.0770078666013743,0.946635478506896,-0.0643101968888045,0.00674210661163808,-0.00853658063606007,0.103679830728214,0.409277977796823,-0.0990266850323258
342,342,0.169421072133361,-0.0767427335578602,0.946512361010076,-0.066147485355962,0.0133986689685244,-0.00862197990467189,0.144330414082034,0.47172202460417,-0.0550557663246376
343,343,0.16909547469699,-0.0764280681447583,0.946371099875378,-0.0659165931165688,0.0210792507093541,-0.00882478840295968,0.168280853087253,0.471396012493725,-0.0760174709957657
344,344,0.168890197579064,-0.07606238622193,0.946205675566734,-0.0613868968054597,0.0291837258455628,-0.00941521026760333,0.198184047362004,0.519872875001579,-0.00540564980308218
345,345,0.16880715156877,-0.0756442942177534,0.946010042377299,-0.0504633384059223,0.036905307398091,-0.0106321794491569,0.280382571155386,0.54175695768457,0.0218040313233051
346,346,0.168879550355136,-0.0751756617769609,0.945751462906085,-0.0301375228305244,0.0457124903714133,-0.0124164560517121,0.191725623621706,0.574421152386622,-0.0441347428642126
347,347,0.169106071820524,-0.0746575864778431,0.945434032357346,-0.00368084328279485,0.056138610531818,-0.0143815045239843,0.215014454853079,0.643165060063061,-0.069765428444383
348,348,0.16943685718355,-0.074087548604796,0.945106920469489,0.0239798513767015,0.0670745055177411,-0.0158895410314514,0.142288612743103,0.650209163072324,-0.112071322902514
349,349,0.16982210319531,-0.0734629276296027,0.944819215137829,0.0472445557250423,0.0769906702310601,-0.0167529066607192,0.112620314281706,0.712832874497959,-0.0793164479995106
350,350,0.170212046053531,-0.0727809978387433,0.944619911862362,0.0651720367592331,0.0842791598683963,-0.0170855978753735,0.0810995071939685,0.703938586730562,-0.11967390111675
351,351,0.170640717124911,-0.0720251900942469,0.944523286298474,0.0776088442438745,0.0899416898808624,-0.0167607234859765,0.144569598018785,0.599119708732181,-0.123540152614719
352,352,0.171141449376336,-0.0711973403145128,0.944496693730256,0.0865017840556605,0.0936021965802101,-0.0159365374727608,0.146943284332536,0.52152836205832,-0.0722802256436698
353,353,0.171663376323652,-0.0703222073249797,0.944518655585032,0.0912792131339335,0.0955364469850748,-0.0146645570385579,0.049483804854452,0.402678927698127,0.0730842106197144
354,354,0.172155531082654,-0.0694244801230371,0.944567625763429,0.0926712353079913,0.0959035028495852,-0.0128975567570351,-0.0504501111519426,0.326228263162222,0.179560286030043
355,355,0.172566858659166,-0.0685287844755412,0.944621982152065,0.0926669271116249,0.0959877995824975,-0.0109984639482678,-0.0981197877219625,0.209042152620647,0.254181155623012
356,356,0.172909973079695,-0.0676178540531332,0.944681294276245,0.0896064498525084,0.0950097688105712,-0.00884944382404925,-0.0482153255731851,0.199841903487957,0.307661867679693
357,357,0.173218843956031,-0.0666751633773058,0.944759893087738,0.083341397337098,0.0928639774783429,-0.00628171277764427,0.000260012094122752,0.220107194763223,0.234764196148502
358,358,0.173474418667885,-0.0657264187389549,0.944858261012794,0.0747403352995453,0.0907798645002089,-0.00350573405888889,-0.0593461682147573,0.180403163621387,0.161841312667911
359,359,0.173657649081732,-0.0647973066730598,0.944976885119995,0.0649047210144911,0.0899513946393797,-0.00110295168354675,-0.0748369454147686,0.168764320811986,0.0680472682024273
360,360,0.173749479703246,-0.0639134965877102,0.94511627503446,0.0557744027044479,0.089935979759172,0.000312421560417922,-0.091405132964685,0.192680429640308,-0.0477528277242084
361,361,0.173713914986712,-0.0631001673599951,0.945286330361553,0.0457504704030164,0.091778279633127,0.000317408017907243,-0.0894019617376483,0.241247372595559,-0.124882526565822
362,362,0.173563620377522,-0.0623401475638063,0.945486773130347,0.0341909638414982,0.094339153312412,-0.000705459770837481,-0.0601168329062167,0.378900416567549,-0.142833397743488
363,363,0.173352537213796,-0.0615956300780662,0.945702890469251,0.021535031564012,0.097965219313169,-0.00212269007589723,-0.0870377201451349,0.357251566514034,-0.120076346878335
364,364,0.17313462744361,-0.060828840429046,0.945919942971545,0.00920011209310246,0.102013191430699,-0.00316863196260405,-0.138783184181427,0.394262590480978,-0.117355916523852
365,365,0.172963876484172,-0.0600020281609197,0.94612314557942,-0.00120213855303982,0.105727466228,-0.00320443124143753,-0.18986858247006,0.398219468470814,-0.16716174307835
366,366,0.172843688406104,-0.0590988879495155,0.946312909065671,-0.00983309568245879,0.107353239506273,-0.00210954902972072,-0.277095821223443,0.456160194468295,-0.166011078472845
367,367,0.1727380815352,-0.0581447173608802,0.946499255343079,-0.01759434850388,0.109819141934782,-0.000597575977131476,-0.302031191139793,0.451031317233771,-0.0608317887500383
368,368,0.172641995420223,-0.0571641180562007,0.946681661693082,-0.0253531926693353,0.112107063603394,0.00205290986503807,-0.461315145807334,0.158243592638853,0.00820217435587842
369,369,0.172550378540787,-0.0561815771791156,0.946859435574036,-0.0322355766936365,0.111868054655418,0.00523177727365892,-0.379029388874018,0.167585792988191,0.307982639383903
370,370,0.172458181920731,-0.0552214708036648,0.947031736333011,-0.0357474903857707,0.109989817658182,0.00846415101739484,-0.314605198568808,0.130423933032635,0.562056153729722
371,371,0.172351491246057,-0.054306113461641,0.947198191564064,-0.033971319824699,0.106060478182385,0.0123107698931351,-0.31708102211657,0.0702452248681961,0.7107028146902
372,372,0.17223371084869,-0.0534191177221145,0.947359208314377,-0.0274368027924417,0.101520993032693,0.0169657713773978,-0.298791504863458,-0.0991075013556943,0.633751151850713
373,373,0.172125746851213,-0.0525268065116353,0.947515092997744,-0.0198057558777166,0.0966532493149566,0.0219076140531155,-0.181235332914492,-0.144358497905536,0.576224443740189
374,374,0.172048478811194,-0.0515955831781102,0.947666163116368,-0.0130941542601821,0.0911657572910587,0.025903090776332,-0.121352558498457,-0.0555979178362964,0.309331034829363
375,375,0.172022756130881,-0.0505919142197273,0.94781273049738,-0.00909093369988155,0.0884252589841684,0.0276837612449367,0.0200943680498237,0.058276862965648,0.152914356879793
376,376,0.172073931366651,-0.0494941326495195,0.947961981124409,-0.00639724095614846,0.0906459290780836,0.0266844459788308,0.0115555680112543,0.115758456357712,-0.0972911313955454
377,377,0.172188033613774,-0.048324646193572,0.948113768171229,-0.00363660638612359,0.0964206446559267,0.0232040843713581,0.0231602760530279,0.19144015024979,-0.164120239455233
378,378,0.172326889779058,-0.0471160323509979,0.948257399104924,-0.00127624610615983,0.104297367563004,0.0186524456010077,0.151504739006025,0.224062055685712,-0.167448278734315
379,379,0.1724523193584,-0.0459008423103757,0.948382129112625,0.000888883859564617,0.112850608383074,0.014162321771299,0.236619627296212,0.164432457636065,-0.135105015836636
380,380,0.172526146506938,-0.0447116065957959,0.948477152299112,0.00258293208775825,0.119698753991167,0.010889291864694,0.186387267528664,0.14133650916036,-0.139169702175766
381,381,0.172552137463034,-0.0435428604539581,0.948532446879289,0.00313354465533267,0.123750784398901,0.00899434190484841,0.181460275796596,0.159531599014651,-0.15495239813666
382,382,0.172555629717295,-0.0423728027218847,0.948555195389155,0.00301564128406382,0.125695918627943,0.00765600985491321,0.0703890086772716,0.178425899435758,-0.1811206169179
383,383,0.172530874308093,-0.0412094935570965,0.948560353995147,0.00122433773884202,0.124829830425288,0.0065134464668493,0.115710894701798,0.244956051740419,-0.0794036068103153
384,384,0.172472182139744,-0.0400610756621241,0.948562876959267,-0.001245107578954,0.122648886379345,0.00526082042129827,0.0888448069943344,0.204556725384098,-0.0462637710985041
385,385,0.172373916057838,-0.0389357747649817,0.948577724786162,-0.00326113706127718,0.120294442439924,0.00385902388845184,0.0631245801553314,0.151605477861034,-0.0015454596866944
386,386,0.172209374576755,-0.0378182272070584,0.948609144418201,-0.00491200933622087,0.118285333991616,0.0020313330624376,0.0610650787148572,0.0635625809491077,-0.0365345055216699
387,387,0.171982372590501,-0.036702986067468,0.948647170470583,-0.0066382097749251,0.116188024545421,-7.0730179838712e-05,0.0160128659591507,0.0407723320928008,-0.0817848787561948
388,388,0.171733087461269,-0.0356132115005348,0.948685480317515,-0.00812318496574708,0.113986302369956,-0.00211410579855153,-0.0424143313168572,-0.00720263856563284,-0.193623549647207
389,389,0.171501701163109,-0.0345720808061257,0.948717777008926,-0.00921130501122289,0.111293977918375,-0.00382907179601344,-0.0399204330452401,0.0422682732327028,-0.262171759566937
390,390,0.171328405380463,-0.0336027965165908,0.948737785327146,-0.00993057972850835,0.107528385436656,-0.0049245177539419,-0.0398938224695275,0.0526406370754876,-0.256824782292934
391,391,0.171217989191153,-0.0327245827206111,0.948738613175471,-0.0105351365012164,0.102356718747421,-0.00517619780346358,-0.056238941453641,0.0434168303470725,-0.112752034693067
392,392,0.171143743317489,-0.0319220669350014,0.948724593353236,-0.00988432293035173,0.0959603442873855,-0.00469146436541642,-0.0645224493645915,0.0135246073013717,0.00971876900446765
393,393,0.171098616058684,-0.0311665523903763,0.948706268359041,-0.00751434361369137,0.0895344375206414,-0.00369135620320169,-0.163162241936057,-0.138616140921005,0.117981138475969
394,394,0.171075538585803,-0.030429284220654,0.948694127267432,-0.00395158114541884,0.0836292483933436,-0.00249967164151385,-0.214109435060028,-0.188768315399785,0.107129835437896
395,395,0.171067420389324,-0.0296814376567677,0.948698602631717,-0.00011111146032675,0.0798967700116816,-0.00144079261776918,-0.239782996959838,-0.270362893071882,0.116866386502361
396,396,0.171096221880904,-0.0289338032210506,0.948724978247438,0.00301404031289096,0.0787332876756949,-0.000350188666084387,-0.201384299406071,-0.417940509537751,0.118763352505337
397,397,0.171166710674955,-0.0282055234246388,0.94876636509465,0.00571164099461882,0.077695920782076,0.00101207844334988,-0.11324307414076,-0.553048154798621,0.169052409524898
398,398,0.171246006275342,-0.0274802427819732,0.94881486383355,0.00768612425821276,0.0754222752072126,0.00238789694419418,-0.0475449055969065,-0.493060346755825,0.200251664058366
399,399,0.171301248788031,-0.0267416093748438,0.948862526930436,0.00830381354356411,0.0727232267803501,0.00341429267672481,0.079765028281847,-0.471406856429429,0.185249759291124
400,400,0.171299599481135,-0.0259732903324183,0.948901355877502,0.00737810105739196,0.0705288234521217,0.00391126949454161,0.0308389864289639,-0.526243218538204,0.0570656064227269
401,401,0.171227180807312,-0.0251617136818666,0.9489283802053,0.00329672565340413,0.0701319602594652,0.00347397122770985,0.0276800671846561,-0.502403738223512,0.0439534010217465
402,402,0.171106000397989,-0.024317654977734,0.948948900656413,-0.00302952262299816,0.0711873983539943,0.00240112878260441,-0.0597441176121489,-0.565907651350176,0.0252462191584637
403,403,0.170957025644839,-0.023461386309478,0.9489672626718,-0.00994619749646883,0.0722693885443547,0.00105535052404079,-0.0896843327052181,-0.573769125503331,0.00786497396336644
404,404,0.170801170005408,-0.0226132594788258,0.948987779178051,-0.0162139693534496,0.0732343559946452,-0.000156623661190152,-0.0677175105055373,-0.474078489114663,-0.079346722162631
405,405,0.170659286481524,-0.0217937054466967,0.949014734898957,-0.0204286152655336,0.074931409984924,-0.000763972331588039,-0.018276827155058,-0.395482419734052,-0.120027525977406
406,406,0.170532627521881,-0.0210100421854991,0.949053357811024,-0.0223455408375757,0.0774607913237254,-0.000755644076156244,0.0692637936338397,-0.278700576031205,-0.100100552635341
407,407,0.170407222794805,-0.020248814968504,0.949100670470317,-0.0221938967151712,0.0800431363874599,-0.000270915879321489,0.129841235133235,-0.175662936395279,0.0126160131576744
408,408,0.170281048562643,-0.0194992927570764,0.949148675490416,-0.0202106128989272,0.0824198331666957,0.00051955518093936,0.076510983866754,-0.0987727415080961,0.091112913938582
409,409,0.170152114980026,-0.0187506462780027,0.949189421786989,-0.0175387448905662,0.0841171264611923,0.00145531432715198,0.049762169834143,-0.121838293896306,0.19505747786766
410,410,0.170018471363635,-0.0179919503942755,0.949215000287897,-0.0140971715895183,0.0852114644444822,0.00234870938552538,0.0439781415818948,-0.106639287415473,0.247187865132592
411,411,0.169866209318004,-0.0171991371152393,0.949229246214412,-0.0105508792173617,0.0858103751549909,0.00331762072079841,0.0312026206499273,-0.112319908111544,0.236891754017023
412,412,0.169696611001437,-0.0163794562592265,0.949237432733961,-0.00684076985202044,0.0864893050561876,0.00441820370652143,0.0549335174610625,-0.117898071850397,0.183298996346257
413,413,0.169530515500953,-0.0155688999442596,0.949233867196067,-0.00341926762474476,0.0867118405823225,0.00552582850097242,0.068143943795591,-0.0526509855842498,0.096760035188888
414,414,0.169388739838392,-0.0148034605658651,0.949212898872404,-0.00118913688565694,0.0869814820711173,0.0064736204660463,0.0589381916977208,-0.0888266955302818,0.032332401327841
415,415,0.169292080144959,-0.0141191220351656,0.9491689350966,-0.000588968232923974,0.0857182283791239,0.00709417191774145,0.0483868735127991,0.00569081427984443,-0.0155490159007386
416,416,0.169274342386674,-0.0135324324417676,0.949096476094086,-0.00144029328038403,0.0821679700641026,0.00703925306034171,0.0184831029909482,0.0282353153753832,-0.0687969490411307
417,417,0.16932156987971,-0.0130193806794943,0.948999488669058,-0.00310038984841707,0.0771780584278955,0.00631510596233169,0.0669251791271108,0.0272179056861505,-0.0909374181595434
418,418,0.169382918634226,-0.0125550761456359,0.948886555634679,-0.00501332616064718,0.0714647487140329,0.00543981226235583,0.126260306932466,-0.047790991486168,-0.119229636953362
419,419,0.169407570946526,-0.0121145967094892,0.948766122125593,-0.00706981959754624,0.0659186755011283,0.00486299904494673,0.204392508336337,-0.125355876340383,-0.0657975318937374
420,420,0.169344740767987,-0.0116729882348791,0.948646476849295,-0.00856876580863024,0.0609608560893645,0.00519568258808079,0.203350025913902,-0.167480133507234,0.0144395402996202
421,421,0.169152202849979,-0.0112286445084821,0.948520498130404,-0.00962959931891083,0.0571153934250058,0.00662907023218857,0.222551906523144,-0.253322911278408,0.113262187074113
422,422,0.168863791895446,-0.0107980094696001,0.94838263841187,-0.0105471983685863,0.0538969184709206,0.00864533866486337,0.22647689342838,-0.30588783600439,0.169013768417948
423,423,0.168542865188276,-0.0103833007486056,0.948243359866053,-0.0107585588632143,0.0511888050269884,0.0108924010707078,0.21524393387115,-0.370583874828617,0.271530669353629
424,424,0.168252809467749,-0.00998689791728236,0.948113041468624,-0.00985197202980175,0.0491485143242311,0.0130148324971285,0.202539288930494,-0.33715079121349,0.225543071401437
425,425,0.168057027954057,-0.00961133193429144,0.948001996555476,-0.00806752291358983,0.0482478403718405,0.0145882761333941,0.241602982999776,-0.330550142819947,0.22466098419979
426,426,0.167938210850486,-0.00925142612848671,0.947909210798325,-0.00496732065631935,0.0489178496388101,0.0158126766934524,0.171916533020944,-0.341956086562884,0.221495811024458
427,427,0.167854126041283,-0.00890565795363585,0.947827609855493,-0.000906541735541322,0.050458041173743,0.0169582664155415,0.177341439056382,-0.401580096805767,0.242687184757637
428,428,0.167830790289546,-0.0085821055263158,0.94775840384398,0.00408561176789372,0.0513878522326852,0.0178278425374838,0.10029542208203,-0.395746859621727,0.232472162057288
429,429,0.167894212827519,-0.00828881820663945,0.947702836890144,0.0096725465149314,0.0499102797035035,0.0181140047183641,0.0867152895325894,-0.278885220659249,0.166615231512089
430,430,0.168070394062989,-0.00803382609916005,0.947662185107613,0.0153527042453099,0.0467611088020843,0.0174979126339314,0.0301885782255893,-0.274073203539444,0.0893601490063369
431,431,0.168391818989311,-0.00781890216594917,0.94763093484101,0.021784944028156,0.0426639527837233,0.0155767515898399,-0.108459453737437,-0.204254883756415,-0.0242504711038074
432,432,0.168841111460528,-0.00763873956410223,0.947608221388687,0.0296878687931526,0.0378873102281879,0.0124866908829431,-0.228428746030691,-0.267731898648217,-0.172414262611184
433,433,0.169369474540551,-0.00749072681671321,0.947602288972745,0.0373701492078788,0.0320395370485753,0.00876493561455781,-0.18622395454231,-0.187915958447625,-0.240055460079912
434,434,0.169928117353241,-0.00737222825630846,0.947621352550212,0.0438217232628319,0.0252216582883714,0.00502394332889277,-0.208495517947421,-0.161467899048522,-0.262913422743169
435,435,0.170468260735749,-0.00728058032380679,0.947673606319202,0.0483564789685065,0.0183584403250211,0.00178113261040915,-0.220211674973112,-0.199782563813595,-0.2772639898914
436,436,0.171027079714207,-0.00723251820499762,0.947769073847306,0.05057532007757,0.0108861984599105,-0.00124878463587336,-0.209357533484512,-0.2847190557901,-0.221156767633194
437,437,0.171637021288512,-0.00722978105969186,0.9479023226994,0.0514330391556562,0.00189713453340461,-0.0042859551726647,-0.25106193622564,-0.353212274085029,-0.233083450795637
438,438,0.17224223373898,-0.00724717358922303,0.948058350054934,0.0506822234481612,-0.00653265127995375,-0.00704441267800239,-0.138219706959354,-0.503128213401318,-0.27742324081545
439,439,0.172786879246177,-0.00725946996411602,0.948222139961105,0.0482783851137774,-0.013486286707243,-0.00921349186549895,-0.0644930666743978,-0.551278843314039,-0.26977941177048
440,440,0.173215145490513,-0.00724141362778696,0.948378654885228,0.0440111676476488,-0.0188276281872542,-0.0103879486612545,0.092832566678917,-0.593592574389629,-0.176722614845617
441,441,0.173509810757699,-0.00716913675997534,0.948533213757561,0.0384003585499906,-0.0208519372043101,-0.0101224417483564,0.138232975043683,-0.666928604729994,-0.037636424148587
442,442,0.17370802539352,-0.00705922434493067,0.948695984504989,0.0316464260601377,-0.0196127211121042,-0.0086987641666173,0.123823395522405,-0.663730489471553,0.0503049628389646
443,443,0.173835645459696,-0.00694721231134922,0.948859119138723,0.0246976351944437,-0.0158055978599373,-0.00670314021495449,0.0692422573046249,-0.675480453572589,0.0791041805333313
444,444,0.173918615250027,-0.00686884165080002,0.949014671346647,0.0191746600934281,-0.0113988268630367,-0.00464903112811083,0.00736753868413569,-0.586936616628085,0.0577289369016741
445,445,0.173982938250399,-0.00686005996588886,0.94915458714973,0.0160755661586874,-0.00862873135281429,-0.00313745335540253,-0.054846244617902,-0.439444652756723,0.0369944715211078
446,446,0.174013147191956,-0.00691448717058212,0.949281286327835,0.0158721258616419,-0.00779015953367583,-0.00210944519710975,-0.172346255431986,-0.287234883446735,-0.0358931046125275
447,447,0.173992038333617,-0.00700833613668622,0.949400094079024,0.0165570364383376,-0.00690758285381309,-0.00127902306627539,-0.192293007705032,-0.222550011350361,-0.102099130820478
448,448,0.173943011849076,-0.00715160595369202,0.949507214778972,0.018448757374972,-0.00641354535416496,-0.000605213628365718,-0.131189397983314,-0.222748351146905,-0.0955192396029817
449,449,0.173889424333203,-0.00735432852049099,0.949598825726328,0.0217461054046846,-0.00778160423521343,9.96364206301709e-05,-0.125058012325328,-0.188605187351737,-0.0965229008324952
450,450,0.173854582695473,-0.00762656168063615,0.949671083853498,0.0273648807252884,-0.0116385215782648,0.00085231890911001,-0.0974003479987101,-0.271043305000922,-0.0502343434970304
451,451,0.173833142759566,-0.00796937647742637,0.949715151039507,0.0368753022834084,-0.0191331424982257,0.00184634648939738,0.00846867700083265,-0.29275221673725,0.0372190352159746
452,452,0.173809426574972,-0.00837629780052247,0.949733497196387,0.0503486277107432,-0.0302208844944756,0.00314941512450607,0.0750510943247895,-0.312839208092041,0.039072890178387
453,453,0.173791223750627,-0.00884599217014291,0.949739289234173,0.0640898064043438,-0.0430590875989356,0.00433159851968016,0.234012219813942,-0.251189667762393,-0.00150564910105286
454,454,0.17378639658434,-0.00937705097532893,0.949745757441961,0.075305339009281,-0.0553337780857366,0.00505665585317886,0.298719302525452,-0.268203674700045,-0.095445975797654
455,455,0.173802927482203,-0.00996799461971933,0.949766192657012,0.0814088077102517,-0.0666931939611548,0.00514854093146574,0.296544360726643,-0.225618718332646,-0.133852570396466
456,456,0.173843229131469,-0.0106317883914741,0.94979606659151,0.08165889210759,-0.0760693540883171,0.00433370312164205,0.203540773449149,-0.199446932686108,-0.186496504158377
457,457,0.173902036813033,-0.0113693649549186,0.949826705032552,0.0772276644411044,-0.0840107537841971,0.00276187992827426,0.15260950045517,-0.236469413358076,-0.189277193123126
458,458,0.17397595957883,-0.0121610782820953,0.949865164237568,0.0702239963930046,-0.0906197946640415,0.000865873369384619,0.060784731766747,-0.235943592430189,-0.200993622686596
459,459,0.174061621157401,-0.0129872406551125,0.94991839954259,0.0625454561834125,-0.0964267718095694,-0.0008661757609976,-0.0165001331657392,-0.180245636075994,-0.180608824520957
460,460,0.174155630937713,-0.0138281404543121,0.949993259202103,0.0557467361136267,-0.101464987081351,-0.00207097879940777,-0.0304309476560581,-0.0746319428943092,-0.186129927808282
461,461,0.174271203857716,-0.014687941687101,0.950102761456349,0.0494570607906862,-0.104577332012471,-0.00276994806111178,-0.136131541257468,-0.00845052345560936,-0.100701185223188
462,462,0.174410792401381,-0.0155796082902178,0.950242346962757,0.0416209004285459,-0.105499705459405,-0.0030770573397628,-0.153989152703227,0.0478589964665854,-0.0378337947274291
463,463,0.174554771523053,-0.0164966671138991,0.950392356760433,0.0339441723563264,-0.105209506459029,-0.00320315945870048,-0.17627394627087,0.0355872504492676,-0.0407484956080851
464,464,0.174683436286159,-0.0174327088762419,0.950533049021289,0.0267363224368557,-0.104484091540319,-0.00323994683576107,-0.20929300447163,0.126417287538788,-0.0502145017672595
465,465,0.174777006323244,-0.018381386775897,0.950644617820832,0.0208129048857425,-0.104167775223895,-0.00322480724868615,-0.212656436319805,0.210792198774327,-0.093384175918476
466,466,0.174830790784897,-0.0193522005112568,0.950725233145216,0.0158047703664562,-0.103389350033997,-0.00321587710371321,-0.166066031470191,0.249586231524181,-0.0931533358320614
467,467,0.174857977330817,-0.0203494257123443,0.950787994103421,0.0113651379162518,-0.102246137038352,-0.00316250029786455,-0.23024907857041,0.26800697251226,-0.0769560519644961
468,468,0.174865509474835,-0.021358936502901,0.95083546552921,0.00759439299083718,-0.101598354555432,-0.00313882730483494,-0.253508505197726,0.211185227168721,-0.0315354308069508
469,469,0.174860274072662,-0.0223665924738939,0.950870192536479,0.00544998737273441,-0.102177068416809,-0.00314619542884025,-0.283772216223165,0.131581365634157,-0.0141365871976655
470,470,0.174849108039247,-0.0233582193064649,0.950894682523344,0.00434137677331479,-0.103049354897733,-0.00333137366550762,-0.260991603899311,-0.0374354430421943,-0.0167835886379424
471,471,0.174826599556987,-0.0243226370977079,0.950908586183084,0.00416304099697434,-0.105273756375733,-0.00375253600186381,-0.216219907772423,-0.0457059903759488,-0.0198096548760687
472,472,0.174788072898593,-0.0252693222395132,0.950910145756894,0.0044578627075923,-0.108490039418482,-0.00432018364480671,-0.18359794682732,-0.10206288264381,-0.0334655667152847
473,473,0.174741474485663,-0.0262150454482888,0.950899747477457,0.00417757242862527,-0.112221385661313,-0.00502051433204878,-0.0752690707490915,-0.120164399006114,-0.027886691004244
474,474,0.174694785491395,-0.0271765753106296,0.950877798907248,0.00329368462186702,-0.115377617289124,-0.00569993835967181,-0.0180452238124487,-0.215936784315597,-0.0742338557533969
475,475,0.174656014559682,-0.028170686411743,0.950844728193204,0.00173839171455034,-0.118362740726004,-0.00618060042035501,0.112100823264357,-0.2387409380065,-0.0968850813063685
476,476,0.174629988092072,-0.0292017048639982,0.950783778515039,-0.000959357173540855,-0.120784918473767,-0.00656649722722375,0.241375113213362,-0.274332435490031,-0.0875173611978862
477,477,0.174611353392909,-0.0302584270480748,0.950694646661466,-0.00401089783930246,-0.122899949552557,-0.00690203587263446,0.268382743213364,-0.291885315275283,-0.0273071054921497
478,478,0.174592881504197,-0.031334339092861,0.950602480019022,-0.00679424311989397,-0.124519790049908,-0.00704695176852883,0.191060274011088,-0.363569545007453,-0.0198150446882355
479,479,0.174567361733857,-0.0324229356696289,0.950532447984495,-0.00917046998310756,-0.125167227223662,-0.00681795558627601,0.176065063063728,-0.402912745974238,0.0555700835330548
480,480,0.174527602479181,-0.0335177199529046,0.950509740743406,-0.0103028715650671,-0.124642596113426,-0.00611533254527695,0.0657208812538565,-0.370274775809262,0.144493100819717
481,481,0.174467887814951,-0.0346441263204305,0.950552298556449,-0.00971304640377169,-0.123179819923074,-0.00439307028861277,-0.033692774954947,-0.299565112388737,0.223291754283747
482,482,0.174393068988117,-0.0358064947907765,0.950643402499381,-0.00724809656570602,-0.120332767635737,-0.00177315797757043,-0.0745405636005946,-0.260859241856045,0.296610615942992
483,483,0.174311797394601,-0.0369666888834899,0.950756236715397,-0.0038249092079926,-0.117250142445829,0.00100132273818166,-0.0838963932722225,-0.147379576641935,0.307696252092803
484,484,0.174232686909939,-0.0380865602723784,0.950863936111234,-0.00057444580503517,-0.114567372924542,0.00315198779053114,-0.126345430935775,-0.0709078834858542,0.27489516771844
485,485,0.174164310979997,-0.0391279464446387,0.950939591413021,0.00134217115201406,-0.111849919753488,0.00386807607064977,-0.0620459654516789,-0.0816723801906623,0.166310403899771
486,486,0.174130522720389,-0.0400686780693769,0.950986985858082,0.00161425166964717,-0.10834989482508,0.00294514397857856,-0.029096617355758,-0.0962810484109903,0.0434994931377315
487,487,0.174125566425992,-0.0409341680948602,0.95102400572511,0.00137099521602714,-0.104210978593535,0.000921475460761637,0.0285260486825026,-0.0675124997606012,-0.108992198787702
488,488,0.174113570528196,-0.041757623935101,0.95104492807743,0.000116279607557387,-0.0995388172300301,-0.00196597428296154,0.122214557526512,-0.0393715072447112,-0.246882107165178
489,489,0.174058662149866,-0.0425722583301611,0.951044109330019,-0.00247801841791212,-0.0948368796425448,-0.00537037658147075,0.19399435943018,-0.0443238973748443,-0.302703369342741
490,490,0.173924966684821,-0.0434112760523729,0.951015998398206,-0.00618262816459272,-0.0900933821401542,-0.00900015964912474,0.199115846889696,-0.0527742543641887,-0.336713661071388
491,491,0.173705886493398,-0.0442997709783894,0.950965419809741,-0.0121699602357161,-0.0870302770807691,-0.013273788862655,0.228990319919338,-0.0880919175766984,-0.327459625554418
492,492,0.173425275898201,-0.0452155081384875,0.950896302056023,-0.0196271067995201,-0.0852905038383453,-0.0183784071186802,0.204213154602358,-0.0796220848818446,-0.357374330844181
493,493,0.173092938212179,-0.0461206980719859,0.950801855493362,-0.0269621390845175,-0.084255974241251,-0.0235672796390213,0.130756904207346,0.00808446267855355,-0.490820702710908
494,494,0.172718679614219,-0.0469775892704684,0.950675336074386,-0.0331094191333325,-0.0828781600631306,-0.0281525118015501,0.0465364009777019,0.107753502920845,-0.541076185064953
495,495,0.172312305145605,-0.0477484900738485,0.950510060668328,-0.0372108322693567,-0.0795017885944879,-0.0315173877378039,0.0199718159608542,0.0738833759929976,-0.565754393951768
496,496,0.171846665418078,-0.0484235417317483,0.950282775772129,-0.0401531374246849,-0.0742803840886403,-0.0340762703491983,0.0918867310082664,0.0135627026839276,-0.405926163399367
497,497,0.171315115682196,-0.0490279228276134,0.949998652145782,-0.0422551301548638,-0.0686972710041013,-0.0363562720018676,0.0937841306449316,-0.0017552909421758,-0.292263906041951
498,498,0.170758219334448,-0.0495764815688194,0.949693437798924,-0.0437713878014434,-0.0622560136438565,-0.0376710785992909,0.05053354135393,-0.0692527017260951,-0.0833010194150893
499,499,0.170216564007219,-0.050083929551872,0.949402464900351,-0.0431808310159022,-0.0561403474086085,-0.0374944652176992,-0.0143523308710197,-0.0825081538803142,0.187026647001528
500,500,0.16973077467101,-0.0505648287877722,0.949160618942752,-0.0403078919335442,-0.0514651975858083,-0.0351011105944373,-0.0212772363045305,-0.157116654415727,0.397762071428872
501,501,0.169271863212002,-0.0509760780800576,0.948940105293884,-0.0359046736167639,-0.0473580083341043,-0.0298202366232109,0.024812331636357,-0.201561877749784,0.599058625331449
502,502,0.168812618445123,-0.0513077120398894,0.948717472080637,-0.0313421431740202,-0.0440172772437382,-0.0221059617300276,0.151887528403384,-0.0592272547890745,0.793333586774668
503,503,0.168396449723438,-0.0516238650047639,0.948533777910848,-0.0256015967794283,-0.041353912986331,-0.013124861974024,0.308466964396513,0.133646132434925,0.788197408478949
504,504,0.168066875104577,-0.0519886698279981,0.94843004858891,-0.0209583366339838,-0.0406338952806748,-0.00391647688143059,0.312330180151085,0.499849571358471,0.999977366804669
505,505,0.167867501517481,-0.0524662908423391,0.948447266474346,-0.016054009971611,-0.0418745189924428,0.00432704697041299,0.354006121939722,0.785862141237603,1.10324755499368
506,506,0.167823340094147,-0.0530916423431238,0.948629304384866,-0.0121523090887663,-0.0445880936958375,0.0128749495556155,0.262427946401833,0.859829308566336,1.18151145753882
507,507,0.16790538826636,-0.053821625409197,0.948948403407277,-0.00839471036720689,-0.0482006163622249,0.0224286307200135,0.126910211685595,0.903420755895534,1.04644579115529
508,508,0.168076273124897,-0.0546036770453551,0.949338251295772,-0.0033714585663793,-0.0529451621292832,0.0319187576312728,0.18207807960711,0.861507698447585,0.824685489639633
509,509,0.168298654302068,-0.0553854667352425,0.94973280948421,0.00250757065686528,-0.0565413953410678,0.0405117235742614,0.234686853636039,0.720537786908075,0.664336897873613
510,510,0.168535268169565,-0.0561148903939315,0.950066350652075,0.0103738282564097,-0.0574896375710836,0.0475030010285654,0.22957895200245,0.615100308957718,0.542773251700829
511,511,0.168794011879183,-0.0568198615665116,0.9503216483524,0.0205119303776843,-0.0552378247126128,0.0527976602977358,0.169558934224549,0.479905529622459,0.321350203722094
512,512,0.16909991668213,-0.0575357428837048,0.950543109404006,0.0314472134771978,-0.0517321332154537,0.0564828977082385,0.147681537129921,0.380100650723308,0.244314432747541
513,513,0.16944149388997,-0.0582217931783501,0.950757424245313,0.0421079793662039,-0.0483046805602027,0.0586191081809641,0.159665661481858,0.349889728355858,0.253147549331321
514,514,0.16980720909283,-0.0588371111520204,0.950990817810802,0.0523815897530761,-0.0451042807618102,0.0594960775064009,0.145349821414854,0.325796877639511,0.235083234610534
515,515,0.17018544966203,-0.0593405771313014,0.951269046081769,0.0623963061350929,-0.0418133301799245,0.059410523054241,0.140469340162216,0.250285196038918,0.160427240065772
516,516,0.17058665864013,-0.0597203430133253,0.951630114954299,0.0737327269400023,-0.0372716594290333,0.0583202766145279,0.0304115417823555,0.281850824522949,-0.0022748471469684
517,517,0.171018669210928,-0.0600041922577209,0.952056485786243,0.0861162720239189,-0.0310630092356882,0.0561060197726197,0.0245770905805051,0.432919437617157,-0.148329639616601
518,518,0.171465861425918,-0.0602100551226648,0.952490296816451,0.0976961074469188,-0.0239697748715701,0.05282369415608,0.0118196878164435,0.574734347970548,-0.289664642003712
519,519,0.171912622566405,-0.0603555946618216,0.952873687376368,0.105933657548074,-0.0165282851475636,0.0487635238763234,0.0642201593888863,0.710583663742585,-0.321937356865788
520,520,0.172343351941302,-0.0604582667010919,0.95314879997876,0.110010687597941,-0.0095661241370204,0.0443215928858412,-0.0422304638389255,0.770491254015157,-0.446247687795498
521,521,0.172758718652905,-0.0605149879113267,0.95331917278756,0.107661317852014,-0.00331827349535221,0.0389370890292216,0.00874626859627456,0.760710628098516,-0.498726855080449
522,522,0.173169105906053,-0.0605138499715188,0.953423177093697,0.100385051318616,0.00259640129009459,0.0325455631912613,0.0337367191821262,0.742795021082673,-0.613772571922815
523,523,0.173573443698093,-0.0604589710191752,0.953455241254641,0.090039735587599,0.00768445663634524,0.0257961385723193,0.0744367343007981,0.697487099329226,-0.613673366489832
524,524,0.173970636698527,-0.0603544881483256,0.953409813628095,0.0798468325735452,0.0120900603315841,0.0194343720946442,0.0824700706981286,0.602410384544159,-0.647174769734881
525,525,0.174359573382647,-0.060204555540959,0.953281359191351,0.0720204994992423,0.0152388662160437,0.0140801617195334,0.0740838370688872,0.486691300428446,-0.621887763350407
526,526,0.174750098875561,-0.0599907436222516,0.953008216499127,0.0672810986871991,0.0161110829134284,0.00954033352654671,0.0449876211017799,0.391690719218191,-0.586442547379813
527,527,0.175142752760647,-0.0597102300857107,0.952594142730043,0.0639389770462333,0.0156524565200498,0.00536626739634278,0.0952079576345821,0.192802374750041,-0.449058422885754
528,528,0.175522540347943,-0.0593906424896888,0.952131679542051,0.0616765708583469,0.0143391423577574,0.0016634894079696,0.0802536127246109,0.0897579405423275,-0.357823130252355
529,529,0.175874599966057,-0.0590596539650984,0.951713260539827,0.0599093790990986,0.0142691328377184,-0.00126027311729086,0.101516562597905,0.0593292705704232,-0.280446608891576
530,530,0.17618420896011,-0.0587449458721863,0.951431217409494,0.0575253966253488,0.0165022192015015,-0.00320017142941056,0.0897016844604867,0.0601390503536275,-0.160109931681977
531,531,0.176426422029464,-0.0584580320952487,0.951312182628469,0.0541640329927203,0.0217680924868525,-0.00368236727580035,0.0978473925070546,0.131641426494653,-0.107769453437993
532,532,0.176611194406797,-0.0581806227608924,0.951294612801942,0.0504815196927769,0.0301997742953118,-0.0027087850930204,0.146415877503026,0.208223017321253,-0.0208402897501932
533,533,0.176776222730953,-0.0578956147581008,0.951338476530381,0.0472415870863972,0.039770887919895,-0.000910895461232194,0.0616750384637871,0.316467011545281,0.0384448749507102
534,534,0.176959147612376,-0.0575858117905682,0.951403635233451,0.0442257037955537,0.04976189674269,0.00106311499087096,0.0129176071568625,0.321885308087945,0.0743323066378754
535,535,0.177197550141922,-0.057233930064951,0.951449824211901,0.041751389806288,0.0574899903011674,0.00257495602281547,-0.0862355547217832,0.381404865398972,0.174767042750378
536,536,0.177493588610679,-0.0568518304399647,0.951476303940743,0.0396129667480994,0.0610808234730276,0.00366256862269999,-0.23406716530097,0.410963468020103,0.218846958611599
537,537,0.177822220082473,-0.0564509356483336,0.951509797381226,0.0374070420907736,0.0617930208704522,0.0046138054987209,-0.238484101542967,0.420774811462487,0.189995926776648
538,538,0.178180210014256,-0.0560132801605062,0.951551180923928,0.0352137651938406,0.061324336534082,0.00533789541461282,-0.317776403626416,0.412179037614357,0.118000702670661
539,539,0.17856434323939,-0.0555209367670141,0.951601347947702,0.0336540380510444,0.0612363730105132,0.00557507126852346,-0.370908975370511,0.413862616459331,-0.0201869299927412
540,540,0.178971422394646,-0.0549560172987385,0.951661205819724,0.0326173729371175,0.0622265780002431,0.00506355894968076,-0.34834098357978,0.426680742838315,-0.119689478583122
541,541,0.179417985112112,-0.0543243175544209,0.951727324058946,0.0306679682109067,0.0646818026778068,0.00376506011458553,-0.218672082352839,0.475392582395207,-0.193169218494418
542,542,0.179906253654353,-0.0536377679923044,0.951799080384567,0.0271000768473287,0.0682456964287974,0.00183630156308452,-0.088250053308055,0.426407205869815,-0.208130209167306
543,543,0.180411534246819,-0.0528877099005118,0.951881633183115,0.0243875112685479,0.0737076730795201,-0.000414809770502159,-0.188094351401767,0.376757189208334,-0.265961173498894
544,544,0.180909081492723,-0.0520654806572782,0.951980153806459,0.0216359575450338,0.0810855494806323,-0.00287730783952824,-0.132690179317887,0.304818360208269,-0.222261060724995
545,545,0.181374097630932,-0.0511624116961385,0.952099825833182,0.0214012895560637,0.0895652049338036,-0.00550840507234098,-0.120784403093118,0.247385469089869,-0.258162549270108
546,546,0.181784873228578,-0.0501709312173748,0.95225833298073,0.0238564109875264,0.0998090072542935,-0.00836085393405667,-0.145137408969393,0.220157001897243,-0.294415851402938
547,547,0.18215789260023,-0.0490968041869367,0.952452291712099,0.0284757613382337,0.11116711480446,-0.0115135044076641,-0.193189705746932,0.25989739387178,-0.354316631631188
548,548,0.182525604321178,-0.0479513649685458,0.95265531236959,0.0332087823861833,0.122490868441587,-0.0149713912505134,-0.174463611735462,0.300271324682469,-0.35850273997871
549,549,0.182920452589579,-0.0467459573531536,0.952841010823081,0.0362815103338687,0.132271759115466,-0.018631139019477,-0.175444445731458,0.342472209260969,-0.347707475838604
550,550,0.183374880881572,-0.0454919429828127,0.952983006092427,0.0357397256038102,0.138992565599373,-0.022187017300851,-0.261419458917349,0.440255936003567,-0.365127643975392
551,551,0.183916482987198,-0.0441762978582739,0.953099514486345,0.0297280445189919,0.144469419208316,-0.0259658886871079,-0.161499359393814,0.384269453358959,-0.313438486247562
552,552,0.184523542560853,-0.042791453798617,0.953208259190527,0.0205667643972583,0.148605813156797,-0.0301033946938115,-0.138041021231095,0.414593398116422,-0.307118405851338
553,553,0.185154589369347,-0.0413570116962532,0.953282105923485,0.0104346209307714,0.151937083368,-0.0339054772437366,-0.280380025931512,0.0567854467078988,-0.0740030973104215
554,554,0.185768227885744,-0.0398926272722792,0.953293898837816,0.00174407347610924,0.154616238180692,-0.0349712375995542,-0.109862458741115,0.935129101028714,-0.214887687579406
555,555,0.18632312763049,-0.0384179993326898,0.953216465456688,-0.00632022612567425,0.156086121075542,-0.0360949761394647,-0.211621572793331,0.379840982941051,-0.252535398921421
556,556,0.186830296032279,-0.036924038545746,0.953006550786741,-0.0141416209628479,0.156186982439158,-0.0364258933467666,-0.131254845857929,0.477932986971056,0.114384988275893
557,557,0.187317373175632,-0.0353977737258506,0.952682409845948,-0.0216444538299719,0.155020672262979,-0.0354135393898645,-0.161439085854577,0.574837709066979,0.212543617057935
558,558,0.187767982377777,-0.0338530305484126,0.952309115150766,-0.0246962087577429,0.155002187969173,-0.033553272901173,-0.219420264314105,0.44541730269015,0.22658122361072
559,559,0.188165718263462,-0.0323035584673791,0.951951714757654,-0.0257757148201689,0.155145630588146,-0.0309177286092921,-0.228693536466972,0.276122646486159,0.224037302408745
560,560,0.188494150882277,-0.0307630245524427,0.951675231530523,-0.0264909779214755,0.15388764805264,-0.0280263933834936,-0.205301697942902,0.198157308787127,0.309348802404633
561,561,0.188715706663617,-0.0292249806403864,0.951480375945507,-0.0241362081946472,0.152843224757551,-0.0253450926069232,-0.26846404109132,0.132897434993341,0.2205901052269
562,562,0.188841328027725,-0.0276801749581704,0.951324004822824,-0.0203312027957289,0.15197105242652,-0.0227242919603455,-0.232121200002113,0.162518819536464,0.213494586559678
563,563,0.18892733156266,-0.0261380129071141,0.95120525498846,-0.0169569437260946,0.151130274766858,-0.0198657866172434,-0.116699363119742,0.0601431979700927,0.341241116337574
564,564,0.189030024011727,-0.024607952756124,0.951123130096579,-0.0137247384819553,0.150291545485111,-0.0165990095853765,-0.0954500888985247,-0.0269794206192436,0.304282758620539
565,565,0.189205699002814,-0.0230995272966225,0.951076502676973,-0.0109000904969886,0.149024900254127,-0.0121224398443333,-0.15824501736597,-0.0174713398421938,0.379176235184139
566,566,0.189506756000491,-0.0215932288661078,0.951080038961748,-0.00753303027240599,0.147202930282818,-0.00553413700142468,-0.171353577240594,0.0156416208048047,0.553836334228074
567,567,0.189895588643069,-0.0200827139588036,0.951134521189373,-0.00186715695396007,0.14556970329966,0.00286649657971935,-0.269219317921189,0.0483485494157105,0.729271147672688
568,568,0.190293484729749,-0.0185972607086059,0.951217754037934,0.00456614475588697,0.144359865027932,0.011595360367099,-0.333300225882282,0.0551940109226309,0.797084852593115
569,569,0.190621757815355,-0.0171660872782324,0.951307372654097,0.0110258998792762,0.141893871722899,0.0192145990734396,-0.394103566106661,0.0548419355515004,0.796309449103792
570,570,0.190801752208616,-0.0158184026218203,0.951380956893476,0.0171674953217788,0.139171446592028,0.0242066425051302,-0.451475548769505,-0.0607481392902459,0.55375738811834
571,571,0.190790866235658,-0.0145976542873363,0.951443025015018,0.0197615010310156,0.134380039274349,0.0261689518146896,-0.403826518730781,-0.0782061631287664,0.303239593660007
572,572,0.190641537903349,-0.013484543470151,0.951508649776759,0.0177158912229141,0.127539527610643,0.0259560964705521,-0.273696998470616,-0.00491044167531309,0.0689928965722695
573,573,0.190417672936992,-0.012414146423444,0.951571423450462,0.0120574762649954,0.121127559454691,0.0240616884840008,-0.196382307424397,0.082544429418215,-0.127418474550026
574,574,0.190183124359402,-0.011321371408775,0.951624885561042,0.00427898298980152,0.11650921848338,0.0209169287623854,-0.100767265866124,0.172208287135561,-0.267818918246055
575,575,0.190001696097579,-0.0101408991383011,0.951662433485794,-0.00263450329922247,0.115259483492066,0.0172300136906038,-0.0463101057277933,0.324488646723926,-0.384214487147552
576,576,0.189889866251701,-0.00885433486802842,0.951681611767449,-0.00748818025076599,0.120499694644524,0.0120668384353986,-0.00537415905956682,0.391413248789047,-0.496438861183624
577,577,0.189805033133459,-0.00750510153161216,0.951687566351993,-0.0109521768191791,0.130315532392462,0.00521460999270659,0.0419028005617662,0.48130393949248,-0.540982363725773
578,578,0.18972230284824,-0.00612053412073434,0.951684868633977,-0.0126143227515153,0.141514223718507,-0.00187244735394024,-0.0099083890786723,0.415445152269744,-0.532067302846336
579,579,0.18961668526213,-0.00472809160319165,0.951677812318706,-0.0125754524254257,0.150635641775383,-0.00772807831304832,-0.0289695706914778,0.389758832359935,-0.49758886806948
580,580,0.189463081168285,-0.00335537221724221,0.951670382543595,-0.0124073510938703,0.154676036467232,-0.0108910339735591,-0.0192799834694296,0.255689958816205,-0.396694349478003
581,581,0.189264868275085,-0.00199602795629071,0.951654638068152,-0.0129841119740957,0.151663034420976,-0.0109616728209646,-0.0112582379685459,0.150644789263698,-0.24633939152719
582,582,0.189038323482323,-0.000631918217666945,0.951628164419424,-0.0146943313941644,0.143261637981357,-0.00904771439989889,0.186331744231497,-0.00572847998656377,-0.0544059971472759
583,583,0.188777763422844,0.000726954308114182,0.95160291629709,-0.0171421172640449,0.132125853407823,-0.00575480568189791,0.244238527351758,-0.109244751684298,0.137986762338415
584,584,0.188477736795474,0.00207063002055208,0.951590717637735,-0.0191352235878741,0.121922639842874,-0.0017373186221866,0.304965440850475,-0.238158443905306,0.286088426174465
585,585,0.188133042817864,0.00338919562926615,0.951603264705417,-0.0198256903617228,0.115538181864549,0.00224640015099574,0.386602042392034,-0.388570171448269,0.382417881269399
586,586,0.187701981793406,0.00468712685448308,0.951639815230966,-0.0192118461992906,0.114286806978719,0.00700752641711833,0.316752466942888,-0.566910669757105,0.505208479105497
587,587,0.1871880734715,0.00597080461710337,0.951692427865124,-0.0184261318792305,0.115760662505307,0.0133020003872461,0.220641896553617,-0.563492254371804,0.583577988942767
588,588,0.186654213263523,0.00723327283704283,0.951762057283245,-0.0180078525864366,0.118723473481896,0.0200141137594578,0.212759679381401,-0.49476876815599,0.620151455781759
589,589,0.186163384786289,0.00846766062172882,0.951849850996342,-0.0167907357399232,0.120557238060825,0.0259634986291261,0.175376245967735,-0.3635530884091,0.584903444992059
590,590,0.18577863404883,0.00966719323490902,0.951957154938566,-0.015394776377844,0.120319551759599,0.0304956708834942,0.0585284618082007,-0.345424236047561,0.461075244410717
591,591,0.185528779993099,0.0108276852674286,0.952082350240413,-0.0154399339682295,0.11808976171182,0.0328233319871092,0.0671418149923302,-0.333338625572656,0.265994220618076
592,592,0.185372043105024,0.0119535034124859,0.952225254794155,-0.0171526035622733,0.113606547084823,0.0336418114254277,0.014078602202429,-0.292298807612935,0.188189249185885
593,593,0.185265518474183,0.013051045320272,0.95238911017463,-0.0196332212520201,0.106416989878572,0.0337755887281678,-0.0250241376399929,-0.29030328624961,0.0906010652036186
594,594,0.185166232470925,0.0141270508247625,0.952576555377095,-0.0215799687791239,0.097977936130726,0.0338375195804849,-0.0196412419681991,-0.270648132714397,-0.00113123222560963
595,595,0.185031193088985,0.0151885612422715,0.952789645600165,-0.0225114362756062,0.0898650090364621,0.0344523918866858,0.05043440890048,-0.346273457941327,-0.0545694750921311
596,596,0.184849097106345,0.0162478279401885,0.953039802285427,-0.0213763050949006,0.0828064418423755,0.0359284694296229,0.102739771871894,-0.377878612120453,-0.0589089754062208
597,597,0.18464871076905,0.0173009238497195,0.953325134425414,-0.0182027949516136,0.0760410504437278,0.038043016913824,0.111062698658518,-0.441447824780498,0.0507039986381117
598,598,0.184447169325245,0.0183305401506258,0.953627205671396,-0.0133575297589832,0.0701129797192517,0.0402443364032637,0.149682152195682,-0.556279602117083,0.125002599456928
599,599,0.184261581065903,0.0193190413416913,0.953927381506084,-0.00690851237241393,0.0649587329276754,0.0421391670157407,0.0313388856187099,-0.688949670477933,0.233156020529775
600,600,0.184109001866621,0.0202485068449779,0.954206841305947,-0.000409949516848114,0.0603543421984626,0.0434590462474412,0.0181918314323252,-0.783102782406634,0.310055512892774
601,601,0.183995012269084,0.0211196417910354,0.954474598936222,0.00804481090641909,0.0552107642535325,0.0445622043471216,-0.0513903429162185,-0.829614406713069,0.254537410913018
602,602,0.183908342192864,0.0219442771924526,0.954742429467348,0.0181709836020858,0.050367165243287,0.0455500275821642,-0.0340002902651261,-0.846073849608872,0.109978200560794
603,603,0.183840727861764,0.0227209591319307,0.954995552614868,0.0279036209084077,0.0456655323182045,0.0461684060901361,-0.0239299413716037,-0.849178577734753,-0.0573007913797651
604,604,0.183783921686603,0.0234481916127559,0.955219208986879,0.0349638550504067,0.0404602840418188,0.0460535469295202,0.069121425077163,-0.755177109342239,-0.191185919411969
605,605,0.183729690866025,0.0241244538555398,0.955398666486523,0.0390174398716875,0.0362724888724929,0.0449088072758069,0.0361419008356714,-0.683111759716276,-0.277318234076814
606,606,0.183689245994852,0.0247542207234863,0.955540460438163,0.0389218353101238,0.0327703556829728,0.0426059066435502,0.0260160792373405,-0.575570978346058,-0.331832173257708
607,607,0.183668112885611,0.025338374199367,0.955653937016716,0.036440170535506,0.0307931466404884,0.0394548483150041,-0.0335574320024174,-0.499585880489921,-0.394033946615899
608,608,0.183649550681379,0.0258700881227449,0.955728722718894,0.03207791477113,0.0295776744290664,0.0357977069233514,-0.0507050807005539,-0.399498223771509,-0.427782689735567
609,609,0.183616864417818,0.0263426023855259,0.95575453891535,0.0274270000025872,0.0293083831921111,0.0318796656777804,-0.105543213334573,-0.394049617280118,-0.397231605116737
610,610,0.1835534045674,0.0267491816842035,0.955721162426135,0.023469430853933,0.0290076544592792,0.0281487787933432,-0.0892663417089683,-0.321027623514952,-0.358117388174042
611,611,0.183478964879371,0.0270867545566905,0.955644937456646,0.020220723695638,0.0286472980683057,0.0247098484851683,-0.146807258107224,-0.261878430119449,-0.346634727003388
612,612,0.183404713393634,0.0273599118254587,0.955532637283723,0.0165583255931445,0.0281661850368947,0.0212516132012333,-0.167524231114696,-0.181135138299263,-0.309822313249032
613,613,0.183301069416573,0.0275734110529197,0.955359705906769,0.0134364420834239,0.0275162782337194,0.0177268781760559,-0.208562564599687,-0.126004913855144,-0.323879137430796
614,614,0.183138438942517,0.0277320045682996,0.955101569976524,0.0103474860326464,0.0262508472575515,0.0139588114108002,-0.217623715775314,-0.088020692110917,-0.383090568686615
615,615,0.182887215575792,0.0278404340624122,0.954733644017075,0.00741050113188327,0.0246340139358478,0.0100450052981125,-0.154574676461508,-0.121465197469273,-0.455991514678159
616,616,0.182483675886932,0.0278720674449682,0.954170326087586,0.00321419929348893,0.0213587523299505,0.00546672489059644,-0.108415303184812,-0.119096880297355,-0.553329281998094
617,617,0.18194746819394,0.0278237098281698,0.953428010746955,-0.0021919523766875,0.0168997874162761,0.000348805184176385,-0.0657914156687818,-0.170456706551938,-0.561294651772262
618,618,0.181374070082874,0.0277352496288168,0.952635095097367,-0.00832958612611988,0.0125125023669508,-0.00491973496075229,-0.0265994747588445,-0.246607840187061,-0.569045811413087
619,619,0.180859041656979,0.0276466199641339,0.951919942688357,-0.0141384040939523,0.00847973332144769,-0.00982808959104246,0.0402817575217696,-0.339803741651363,-0.523442632862994
620,620,0.18049803458109,0.0275978208926925,0.951410881145303,-0.0190510729036778,0.00432220407791014,-0.0136993589012979,0.0771445493958836,-0.321087845515584,-0.451889085760838
621,621,0.180323576543646,0.027613993548908,0.951146389751557,-0.0227989220064147,0.00108221914757508,-0.0164122220394321,0.130605702026501,-0.315965525498584,-0.305355955933051
622,622,0.180271953455126,0.0276685191671731,0.951040909626464,-0.0254528056131412,-0.002030251107875,-0.0182145106314805,0.134071518090422,-0.267705268041803,-0.264779069365097
623,623,0.180294505593228,0.0277238086160791,0.95103671249767,-0.0261128004764726,-0.00519954357145781,-0.0192244388590592,0.0969213328446446,-0.280131600270421,-0.206884324848726
624,624,0.180342573065817,0.0277422717766985,0.951076103964441,-0.0249218160518428,-0.00862701333248996,-0.0195799354846744,0.0439381003603055,-0.231454063466535,-0.223765843683456
625,625,0.180367493906032,0.0276863238263511,0.951101440959591,-0.0225686485566902,-0.0121842176208411,-0.0196317126288368,0.0672198083803026,-0.267194324061924,-0.184844800165953
626,626,0.180359722429347,0.0275587183209228,0.951120202899004,-0.018462913804441,-0.0159102611367658,-0.0192870447771051,0.0670668650144343,-0.266202350784587,-0.17694357716539
627,627,0.180351711830076,0.0273846314814975,0.951171027230265,-0.0130503422876196,-0.0194970784443524,-0.0184289201281687,0.0648559807643177,-0.314887842727089,-0.0764971408963208
628,628,0.180357778294356,0.0271601102943113,0.95124307437635,-0.00704738750631329,-0.0241156813526544,-0.0171694033991357,0.102422500277749,-0.312941892507095,-0.0180201571843074
629,629,0.180392229385445,0.0268811795024462,0.951325513678326,-0.00112318352432496,-0.0294416855185943,-0.015702552185714,0.0919979542730693,-0.259917647421732,0.0403339955815599
630,630,0.180469369619043,0.0265438335821423,0.951407514063896,0.0047041214253182,-0.0353942074726287,-0.0141337407365066,0.0569844409571167,-0.212025025297713,-0.00361072897355061
631,631,0.180614033575585,0.026147471265162,0.951501040834642,0.00968261404828105,-0.040535215845901,-0.0125689554073725,0.0643259128555606,-0.270750952918554,-0.705131799288156
632,632,0.180816681115923,0.0256949347440395,0.951613712104613,0.0150470708350229,-0.0458687400729118,-0.0106227204010059,-0.00808061860108675,-0.25839882623649,-1.12246303187238
633,633,0.181040028769644,0.0251872727078,0.951728138498603,0.0193172585276898,-0.0512933001054843,-0.00881270184419033,0.0129416775964347,-0.271633047515338,-1.0591185937563
634,634,0.181246749321592,0.0246254025673435,0.951826878124728,0.0227607037028318,-0.0566275616484537,-0.00736959257227643,-0.0139552942796521,-0.338460009146197,-0.722148818274729
635,635,0.181399463655807,0.024010093314694,0.951892428132509,0.0250543050618066,-0.0632344238566105,-0.0063769040963203,-0.0488133681901862,-0.333408362791755,-0.0449036708767853
636,636,0.181493971937171,0.0233374890939329,0.951924416006286,0.0255323823369422,-0.0706789902032588,-0.00582411221275607,-0.0550990420304902,-0.423745198054319,-0.0265555595283395
637,637,0.181555060714761,0.0226068689472029,0.951934904821561,0.0246596622326937,-0.0773588479390846,-0.00569604420544487,-0.0998721409958148,-0.484010718478266,-0.0756660844066449
638,638,0.181588784824097,0.0218235911641174,0.951924929058908,0.0219023658732896,-0.0835070740293003,-0.00604845712663483,-0.0556888506616947,-0.497815910460983,-0.0543191911659376
639,639,0.181601198007112,0.0209930305160726,0.951895424456642,0.0183978768261455,-0.0893194029277358,-0.00686730474517895,-0.0147718161273581,-0.477588402951659,-0.118810702474321
640,640,0.181598361208582,0.0201205849464392,0.951847222257245,0.0150924715955494,-0.0946203804818871,-0.00809283419551365,0.0437373995020694,-0.498843515698712,-0.154169994570664
641,641,0.181563638864713,0.0191942960946082,0.951773464922816,0.0123819385042528,-0.100166942324917,-0.00992049615862993,0.0769639863941966,-0.446269309280463,-0.179507849781615
642,642,0.181492804913076,0.0182102200254301,0.951673817887865,0.0100281254670977,-0.106711347639473,-0.0122129750696486,0.020792319357086,-0.41715782868946,-0.181508446960714
643,643,0.181410633163081,0.0171859578556866,0.951558773040473,0.00732325380109006,-0.114539842105579,-0.0145904484207211,0.0080312288812336,-0.362106086436987,-0.261690634833471
644,644,0.181342022672309,0.0161393378145498,0.951438758879015,0.00377220895548108,-0.122142417758139,-0.0165584072636615,-0.0229558125247004,-0.38063081356351,-0.128408122721842
645,645,0.181311995857059,0.0150884247020156,0.951324139162781,-0.00123099950500349,-0.127873672608585,-0.0180040894413959,-0.036908976273148,-0.423481734643902,-0.260436456662004
646,646,0.181336800054542,0.014051692505579,0.951203074168578,-0.00752301356916026,-0.12909897398049,-0.0197202242945706,0.0705250717249267,-0.691913095190454,-0.695027843102908
647,647,0.181399887200757,0.0130172740636276,0.951068810614452,-0.0151394038734299,-0.12829827477276,-0.02089702666824,0.107932199929136,-0.607126389485065,-0.990535038393735
648,648,0.181477203058452,0.011957988426515,0.950939189867454,-0.0221300014890273,-0.127257435593583,-0.0219102169141234,0.125997300189554,-0.527524707727499,-1.03456213555293
649,649,0.181544721244784,0.0108467592296179,0.950831903982447,-0.0276404038289488,-0.127392440122355,-0.0227056616277085,0.14767643067656,-0.356888638671465,-0.714504824377595
650,650,0.181578435206537,0.00965660086834232,0.950764496730157,-0.0310084931656094,-0.128212653080165,-0.0232946770025984,0.195221031187716,-0.14431080760655,-0.0534621970218049
651,651,0.181557608298189,0.00837802209500231,0.950748913978557,-0.0328594536702597,-0.12830012249162,-0.0240409506829601,0.204589162602493,-0.296530303662254,0.0352300737484142
652,652,0.181498498030305,0.00702951049386001,0.950773368689764,-0.0338838311398586,-0.128718152983705,-0.0248135848230406,0.226891303051069,-0.192807208442336,0.00836146278080726
653,653,0.181432547369534,0.00562596239932555,0.950819556791709,-0.0338103525276412,-0.129624371449892,-0.0252433492530427,0.212775841579866,-0.152926116894074,0.0466848432198552
654,654,0.181391121858885,0.00418208475664014,0.950868983395729,-0.0330609676514226,-0.132526994032624,-0.0249147644062327,0.193306896492133,-0.0872654147245667,0.0695398774586539
655,655,0.181405506347634,0.00271240354906046,0.950902979960494,-0.0313461648600588,-0.136761218348378,-0.0235395321829957,0.178336077532489,-0.143991263095092,0.170399473644245
656,656,0.181498721448927,0.00118561660483376,0.950912965719009,-0.0270034440029073,-0.141938109366851,-0.0209693552130966,0.102373673463853,-0.28147466239439,-0.522662892051874
657,657,0.181650013087853,-0.000407807214576845,0.950911004425488,-0.0199667599960023,-0.148479210669338,-0.0170261314144928,0.143622057997514,-0.236907396125784,-0.83107171442685
658,658,0.1818248477348,-0.00202112314771842,0.950909139326521,-0.0124254292290068,-0.1555115140436,-0.0124610265905278,0.0940468926216885,-0.134636959909467,-0.747491080303165
659,659,0.181988557943909,-0.00360795630356941,0.950919243943611,-0.00551861148151493,-0.159824893650111,-0.0076651257636842,0.108761234960584,-0.124007436353184,-0.342501231287444
660,660,0.182106356598364,-0.00512220220203544,0.950953063753383,1.47306224026356e-05,-0.162127889512305,-0.00317220767812539,0.10980228832035,-0.144130681330575,0.540992280982955
661,661,0.182165708453704,-0.00656026433753039,0.951020161645644,0.00391556388096557,-0.161488422338202,0.00188530725083758,0.0774788840253295,-0.294898039862074,0.697942365314036
662,662,0.182189614978966,-0.00795337570713303,0.951112135761689,0.00662966571217448,-0.158964230392728,0.00784864277326244,0.15410170369946,-0.311752435969863,0.799272527741458
663,663,0.182196575353126,-0.00930763640558072,0.951213856855974,0.0101406451272023,-0.155579109423271,0.0134903307206519,0.0692419353211109,-0.231606654798604,0.626933283326453
664,664,0.182205129317787,-0.0106290621100004,0.951310308710938,0.014110393653752,-0.15233533806848,0.0175312367241894,-0.0280694402717128,-0.239064853122737,0.367829881515097
665,665,0.182233835056032,-0.0119236753391082,0.951386532665902,0.0165303517511289,-0.15042767972975,0.0187595501073644,-0.020704485892102,-0.177675938416829,0.112761139796762
