,Frame,CoM pos x,CoM pos y,CoM pos z,CoM vel x,CoM vel y,CoM vel z,CoM acc x,CoM acc y,CoM acc z
0,0,0.00617567869629343,0.100898822882947,0.944467776875801,0.197137087954319,-0.0679455375511594,-0.0713255445783269,0.272754580221632,0.0475909251712318,-1.27022760512841
1,1,0.00745782998050481,0.100621096428736,0.944674835589726,0.180784718336027,-0.0852888773729815,-0.0576385284244519,0.5708608731079,-0.114558231068595,-0.636663482752571
2,2,0.00842917673700028,0.100159380722631,0.944991884422676,0.153653055663503,-0.0992470121967158,-0.034988704461399,0.836490195185493,-0.158642946908787,0.0966755323090125
3,3,0.00930794886664695,0.0995766400347063,0.945320100650855,0.124075605312359,-0.107197000492583,-0.00798969314641875,1.24430883897224,-0.38548062946214,1.08907382444251
4,4,0.0103122053025218,0.0989335280812336,0.945559683284549,0.103743189238049,-0.112332209743502,0.0183056751771273,1.59031352600248,-0.493717172736434,1.98321585017573
5,5,0.0116598976841707,0.0982883214525413,0.94561005943542,0.10489958744088,-0.115902592838972,0.0390823268813518,1.60035332237963,-1.03006809377544,2.63686172323473
6,6,0.0132724269474882,0.0976209376686595,0.945392994004965,0.130147615905188,-0.114024838035804,0.0556377464273815,1.35310941751572,-1.51752247877588,2.77098593663438
7,7,0.0150036991543507,0.0968891267080893,0.944974620326597,0.172363774244888,-0.106767364025486,0.0711590920011221,1.11106072008261,-1.69201531632806,2.77600298803339
8,8,0.0169705025210026,0.0961174105755362,0.944469351090651,0.223719338897387,-0.101333189030704,0.0840155896177746,0.964901633431864,-1.45668146871376,2.12231130392039
9,9,0.0192899308723911,0.0953319902855116,0.943990375356942,0.272269132103669,-0.103308685803715,0.0927054603473391,1.02225458346375,-0.856908868309595,1.31183884299617
10,10,0.022079485462617,0.094560570813889,0.943650008530172,0.309839194886738,-0.108771139222135,0.0955710003503073,1.0498486241488,-0.723502383151337,0.806833463251385
11,11,0.025496885465691,0.093837835979814,0.943477169383815,0.337821420927299,-0.11421296791626,0.0910804633791591,1.28995702659324,-1.01078099294383,0.817414779515065
12,12,0.0294639342852589,0.0931452460736327,0.943394638804809,0.361498766195106,-0.119583239107606,0.0805343095264816,1.36567492251047,-1.30653851792064,0.613194985421255
13,13,0.0337445953927875,0.0924316788714317,0.943355884309832,0.382384490871507,-0.125684104040616,0.0662469378156023,1.10080270378621,-1.37287508991478,0.133950626824928
14,14,0.0381028169787414,0.0916465147046809,0.943315059057395,0.401519622657121,-0.130886955388578,0.0503400174279319,0.602322689367416,-1.33264808613412,-0.509363734220724
15,15,0.0423025859455913,0.0907398543476816,0.943226707854957,0.416047904496346,-0.135016739033488,0.0350459165381234,0.39580667226228,-1.22247144296294,-0.949598622992316
16,16,0.0463671029319546,0.0897410937373613,0.943100344968808,0.423459355475009,-0.139617148790954,0.0189797459411323,0.394199660426321,-1.09528119015203,-1.20049798571792
17,17,0.0504539878644093,0.088684109188266,0.942967632248084,0.422885348531319,-0.146653502542987,0.000815650824636569,0.547078158579121,-0.997462188230417,-1.31262508910549
18,18,0.0545289078705652,0.0875265458823161,0.942816479993516,0.417852771638958,-0.156188911104257,-0.0176875427357515,0.659603906400722,-1.04189402157336,-1.44056912668644
19,19,0.0585575340602574,0.086226325787768,0.942634588033652,0.411343025887078,-0.166881028636179,-0.0348130916707007,0.703995123520018,-1.02683922070826,-1.381420402275
20,20,0.0625056075897386,0.0847415743426785,0.942409258974446,0.406457491204722,-0.180007241839413,-0.0488611329080218,0.836492738352289,-1.0728912673211,-1.32692621500801
21,21,0.066371459949279,0.0830290283810141,0.942133874790848,0.40284067253067,-0.196491324312886,-0.0595345269745075,1.04069860599065,-1.11246935992606,-1.23632608135894
22,22,0.0701785934933596,0.0811185496121185,0.941818477300071,0.39914053039315,-0.215720543237295,-0.0682622219509664,1.05446354967621,-1.16530343965821,-1.20685203850667
23,23,0.0739303853209622,0.0790775061760043,0.941474389691594,0.395303401932313,-0.234150091738816,-0.0753743303315265,1.14927363888632,-1.24688452264887,-1.19380193285315
24,24,0.0776298427329893,0.0769724194070812,0.941112100231863,0.391585944350955,-0.248976783113838,-0.0812240216226202,1.24505579270624,-1.27391811586881,-1.10315593717354
25,25,0.0812795913352662,0.0748689307683949,0.940741271811155,0.388922519942829,-0.257510328139973,-0.0862867305583738,1.31714491004594,-1.20404913424999,-1.09250961973722
26,26,0.0848073926162828,0.0727581934414393,0.940360903754119,0.387193860713038,-0.258492207548279,-0.0904313498865782,1.39028361632593,-1.21061224766691,-0.976166356040709
27,27,0.0882114520200699,0.0705964497170181,0.939963892071111,0.385607893310954,-0.253960999193883,-0.0934749246096838,1.45499380904803,-1.00447251428942,-0.748062522476982
28,28,0.0915996054345612,0.0683960409682654,0.939550024720481,0.386318282001983,-0.246561766360576,-0.0955944536178469,1.46382362999632,-0.842689297520915,-0.650146159869976
29,29,0.0950794749859334,0.0661689352017013,0.939119002627024,0.389360976441992,-0.239569207485285,-0.096877175197992,1.35064495537317,-0.787122487412244,-0.575747587068021
30,30,0.0987585222764169,0.0639267526318649,0.938670512636141,0.395324593666609,-0.234183503570651,-0.0974229275764937,1.35739819600432,-0.781156155147765,-0.412830859014538
31,31,0.10258205837742,0.0617254093087853,0.938221623647617,0.404195625656548,-0.230591009582588,-0.0969134778867442,1.28475511941982,-0.816019466983073,-0.323165351558276
32,32,0.106477959505208,0.059556270682538,0.93777200128624,0.415568065489307,-0.227886729090533,-0.0952075117349452,1.31208843826661,-0.637481657445995,-0.139433872898575
33,33,0.110527589379581,0.0573338288972679,0.937294895908827,0.429708304198626,-0.226202151985884,-0.093013715882382,1.19614977931441,-0.693364444274924,-0.0187890846905337
34,34,0.114812510028183,0.0549725055747953,0.936763111342049,0.445621754991217,-0.22714163656871,-0.0909183364189636,1.04178090015425,-0.588440293004027,0.0101740730677598
35,35,0.119414469705924,0.0523866505901212,0.936149064067705,0.461576200912254,-0.231884716728157,-0.0892820205592295,1.1471201371202,-0.525765640687809,0.11807090215914
36,36,0.124376805160059,0.0495677063573242,0.935443332631564,0.475828860712986,-0.240867176822964,-0.0877163801899032,1.29830995102939,-0.628431467859431,0.135625687243362
37,37,0.129645224962071,0.0465718919031468,0.934663297410446,0.489885985282244,-0.255527953790747,-0.0862100898189766,1.32785719636569,-0.707842137269828,0.0192321821929161
38,38,0.135155165018937,0.0434106392505928,0.933821132694858,0.504460321654431,-0.273933380907141,-0.084692046805408,1.41831567147843,-0.785854933391613,-0.110653118805725
39,39,0.140842086738566,0.0400953845119361,0.932928790089465,0.520548527120708,-0.293157602757843,-0.0829720314633316,1.39593142745905,-0.860244066440971,-0.269691362713876
40,40,0.146641481001904,0.0366376263576272,0.931998079935126,0.538741379852963,-0.311849073186175,-0.0810955904945273,1.35052202476208,-0.979008507474543,-0.291871367145601
41,41,0.152521452999172,0.0330547190647116,0.930994725796745,0.559321956193814,-0.328726867475997,-0.0797688453696246,1.40329361785819,-1.02380825955939,-0.24212221132899
42,42,0.158525256009452,0.0293384003136242,0.929910209371088,0.582492797984366,-0.344093948015737,-0.0792345297191033,1.61670292678136,-1.17883576248475,-0.0760563426945643
43,43,0.164701237226478,0.0254620922103213,0.928794870688003,0.607735498840306,-0.356608964712851,-0.0785028269555207,1.77320193554769,-1.43200445398626,0.171865932128385
44,44,0.171097886530014,0.021399629421775,0.92769910318935,0.634345997663363,-0.367952565325227,-0.0763514394088964,1.98095573668131,-1.30233445590677,0.430884846721143
45,45,0.177763803566003,0.0171253426977227,0.926673561114697,0.662849024666643,-0.378245264799214,-0.0725631777945944,2.23209321197723,-1.13465797189349,0.653787830136489
46,46,0.184684899686138,0.0125106770505964,0.92568877983593,0.69722387587419,-0.391746253807736,-0.067259544998778,2.25438176766497,-0.729701927658191,0.783282879294722
47,47,0.191829586763992,0.00757453432714398,0.924712996303396,0.737024998169258,-0.407880785337281,-0.0606360114956328,2.41382548084436,-0.561992561574135,0.903284651695457
48,48,0.199219829937967,0.00251243524065793,0.92379309675203,0.778551813980423,-0.422795103666765,-0.0522818002617246,2.86964738542354,-0.729426826413261,1.16640259106196
49,49,0.206876886361212,-0.00248106705535755,0.922974460299091,0.817373817592449,-0.43106688266186,-0.0424351736791799,3.21640741221516,-0.977639898126662,1.26612629093002
50,50,0.214821324346005,-0.00721270363851691,0.922300653141625,0.85292639758673,-0.431755523566364,-0.0277690522083815,3.57378683099332,-1.45385085436698,1.61390171738759
51,51,0.223020549313145,-0.0116408804424183,0.921718679183448,0.892088652153098,-0.42052666463189,-0.00664973637692597,2.74510473660537,-1.40852432653837,2.93002713239239
52,52,0.231460019979895,-0.0158952435103768,0.921199390913853,0.927053727353319,-0.398843928789759,0.0199340214503474,2.80642753222833,-1.76827120810096,4.15550392991131
53,53,0.24018708730053,-0.0200405003276888,0.920820828822697,0.94705798447434,-0.373834352844565,0.043627593925817,4.01248263332142,0.0913636663981378,2.94998160052719
54,54,0.24924937095176,-0.0241413863958742,0.920661189267101,0.97343592552401,-0.359634800481657,0.0675234795856532,3.94953535465067,0.151170267525562,1.99526209317525
55,55,0.258694847838059,-0.0282627668299986,0.920799624621918,1.00243838225771,-0.363405131955653,0.0856590550395779,2.6617722356367,-0.723722180104889,1.77443532885319
56,56,0.268710159950502,-0.032304023779448,0.921326199373826,1.02611037209151,-0.374158859373873,0.0940531965896552,1.21897453668722,-0.369665844614133,0.875486578074666
57,57,0.279264051559383,-0.0362259447500867,0.922192973545948,1.03567997410105,-0.384226587170299,0.0956676267239849,0.128909427081594,-0.25148280001049,0.249062862629389
58,58,0.290077813188819,-0.0401841483228384,0.923273507466973,1.02491704167342,-0.402122005535997,0.0938715160726775,-0.11443696777205,-0.178807113860039,-0.224506605158398
59,59,0.300872358812744,-0.0443316180604174,0.924440385930676,0.987832342416938,-0.406030012956357,0.0976630997026062,0.073706911562037,-0.752235540536518,0.543896546400202
60,60,0.311368109137804,-0.0488181459720348,0.925565159052916,0.965459920428044,-0.395824255147955,0.0901901289974672,0.0550615231373697,-0.848418419745529,0.159476833622835
61,61,0.321556545944783,-0.0538375637058736,0.926721243133498,0.961885048725902,-0.38420193927725,0.0706682785087198,-0.714951249516538,-0.646510591038294,-0.757165055059174
62,62,0.331625570427458,-0.0592867051333265,0.928007700339033,0.949810102602259,-0.375628506403619,0.0595339529249291,-1.35956799662089,-0.116015153295087,-0.532246757066504
63,63,0.341588900748665,-0.064868464918755,0.929328744266329,0.935336605436201,-0.368608985780219,0.0555144522688859,-1.34282708755491,0.100035164979466,-0.259503643088882
64,64,0.351458195862266,-0.0702878080062301,0.93057937728496,0.922031378844435,-0.36533417967686,0.055203400355252,-1.24391281187554,0.388214661806053,0.072699525385062
65,65,0.361242881769087,-0.0752516181449934,0.931645036059403,0.918800482685087,-0.363888220981538,0.0528339364543711,-1.28664776732618,0.662496432243833,0.126978709918103
66,66,0.370842290751165,-0.0795140395106707,0.932485503972225,0.918314658371426,-0.365710334151185,0.0535313365688465,-1.24179590541367,0.963598935340601,0.618408018615705
67,67,0.38024696467443,-0.0832716306362677,0.933172519735875,0.921831291091746,-0.364930287918078,0.0597130925853128,-1.49582309495458,1.00969121298557,1.29666653948245
68,68,0.389602660133705,-0.0868951580522386,0.933754583187779,0.929005297316972,-0.363305772244139,0.0686687280156657,-1.77091849923489,1.02873764431827,1.26046017636088
69,69,0.399055998215213,-0.0907545211990958,0.934281602055163,0.939700039679077,-0.362621887339116,0.0778534342506499,-1.74641874842271,0.722406837314079,1.07146952579659
70,70,0.408754331734902,-0.0952190340491139,0.934804553164377,0.954299975449874,-0.369759636909098,0.0836368163494564,-1.5649342518709,0.441931847085399,0.846384879875855
71,71,0.418818795314427,-0.100423357318091,0.935333211357368,0.969092549931941,-0.392245516690368,0.0875798515393225,-0.997518749999816,0.509271963724702,0.69931364746298
72,72,0.42915099238801,-0.106121037584234,0.935836828865667,0.981395608828168,-0.426511848802182,0.0912149878099992,-0.222505131566883,0.430960580028321,0.325344071286621
73,73,0.439569938542852,-0.112109272580486,0.936304578271794,0.989170035753085,-0.463646893210578,0.0918050957385593,0.20941775128555,0.512822284593623,-0.293831868799674
74,74,0.449895509145361,-0.118184822996519,0.936723438971046,0.99091424303444,-0.494982203807365,0.0886839782985394,0.506570414695984,0.835616430798318,-0.739140494467559
75,75,0.45994868443926,-0.124143911286207,0.937078383079749,0.987571928251954,-0.512415310528617,0.0805394098020122,0.501552360357088,1.26433679941227,-1.32815119777263
76,76,0.469721410948391,-0.130098873187557,0.937412945032569,0.980327896244122,-0.513930871944862,0.0652718640007103,0.596362944412618,1.50471209934255,-1.81991563237902
77,77,0.479336798531386,-0.1361851440375,0.937737409234994,0.971111947097327,-0.504349692568991,0.0431997494536121,0.549107339602787,1.41932853306601,-2.20885342738956
78,78,0.488812841013829,-0.1422336517494,0.937985640417618,0.96300954361421,-0.488506004589271,0.0181819746921141,0.486895279867142,1.35699431165104,-2.39380728639372
79,79,0.498166667843493,-0.148075748340737,0.938091490305139,0.956670802273528,-0.470767244558351,-0.00635469346860362,0.480842690707592,1.14274529545325,-2.47992247705263
80,80,0.507414529887319,-0.153543069280247,0.937988488901372,0.952607982091882,-0.454773904036566,-0.0275769986652233,0.605239572109933,0.959016550451649,-2.36612800294465
81,81,0.516491851296364,-0.158533475252355,0.93766865941898,0.949110259492467,-0.440142850792479,-0.0454405645970917,0.622950815653145,0.680123255292869,-2.23347938244074
82,82,0.525389526652097,-0.163159839860891,0.937180264745193,0.943934805345413,-0.425257692218193,-0.0628077596328494,0.766619051644376,0.518071232941807,-2.04001444967597
83,83,0.534206600828064,-0.167576110031662,0.936539205573604,0.939291143802156,-0.411550818142568,-0.07911839242042,0.67811167594095,0.455226420761608,-1.89499569680173
84,84,0.543042476951318,-0.171935869301828,0.935759381234448,0.936800013856512,-0.401707698659956,-0.0947430064196212,0.735372454509862,0.361909770966707,-1.70700867062412
85,85,0.551996850462069,-0.176392595233732,0.934852835391188,0.938117925979403,-0.398620122819847,-0.1101441310642,0.635487067879742,0.225203827460245,-1.54354053596197
86,86,0.56107932256623,-0.180956633398253,0.933797698642358,0.944161934126491,-0.402394243591643,-0.124576371358595,0.578646689953703,0.106784128607325,-1.39998335302016
87,87,0.570225116196803,-0.185525048496958,0.93258922001816,0.954188489172611,-0.411026799788523,-0.138194454079366,0.550849461500659,-0.262263655866284,-1.38683580714175
88,88,0.579421288793256,-0.190081457263974,0.931260982122121,0.965002492477731,-0.422172555388154,-0.151147896079271,0.660012037536094,-0.568906968471169,-1.43129596500336
89,89,0.588653683922637,-0.194609650232874,0.929842389978619,0.972132449438959,-0.432281919330151,-0.16394323815092,0.983423066524447,-0.846073528342134,-1.41594985596382
90,90,0.597907470014562,-0.199093877605,0.928358614966924,0.973293378542097,-0.438354813200661,-0.177423113941042,1.11393000822488,-0.912165535662831,-1.53580707421784
91,91,0.607095016001541,-0.203498232427859,0.92676891789573,0.964950074558026,-0.442119444980803,-0.193207854374658,1.65231927611066,-0.882749182661994,-1.55384086647452
92,92,0.616223265754704,-0.207834587066793,0.925053619051647,0.952446089412276,-0.444985887941725,-0.210578907370452,1.79950716043291,-0.80888551326613,-1.60375254122959
93,93,0.625419574585246,-0.21215814402072,0.923263462370653,0.941498300051633,-0.443404385337162,-0.226937251955139,1.63276113380958,-0.67886741950636,-1.73579605042212
94,94,0.634812724158146,-0.216522417902631,0.921444982905107,0.938691581344554,-0.435869156488886,-0.2395457482198,1.31381708024679,-0.519279824544628,-2.10379358276959
95,95,0.644533434000929,-0.220979475418339,0.919640997336214,0.947034789725974,-0.424965075694964,-0.246642101377702,0.940621441585466,-0.122166311353373,-2.46775392330532
96,96,0.654618364302922,-0.225556021384557,0.917718390439624,0.963554941086209,-0.412712671045277,-0.253085779970158,1.02404321128772,-0.121315176511906,-2.26446921059809
97,97,0.66498129416082,-0.230215930668384,0.915640512081265,0.984030135670371,-0.400394688080781,-0.261702599345075,1.37213996394214,-0.317943990734492,-1.64782707794421
98,98,0.675570991646724,-0.234917101487769,0.913590996345726,1.0025302528128,-0.393495228669487,-0.269611941230184,1.86028932555395,0.0385916476780362,-0.719264878335523
99,99,0.686337383357342,-0.239618335417642,0.911751714738518,1.01963074835362,-0.396746409332034,-0.271195526768424,2.28017254186191,0.738310921936702,0.337944169865692
100,100,0.69723103426199,-0.244278833793407,0.910303854064734,1.03575383661123,-0.407505170150796,-0.260894259950578,2.26990758914818,1.17000480918933,1.16001687051286
101,101,0.708153296316018,-0.248798774376314,0.909220430827012,1.05107628468358,-0.423721239449156,-0.233477092554649,2.52070744560112,1.20977941337485,1.78189150748701
102,102,0.719138803745591,-0.253205505712387,0.90837665650511,1.06788177722147,-0.437767227766406,-0.189032099532827,3.22295023724457,0.643887973762655,2.33811094483851
103,103,0.730336916581305,-0.257648883494334,0.907808834746495,1.08746867101491,-0.443212028290559,-0.135338688432598,3.92821850290902,-0.310872331876055,2.91978225019278
104,104,0.741896793268893,-0.262279586610515,0.907553504604165,1.10524663901749,-0.44409831170996,-0.083272192810227,4.13722051208582,-0.908904502877992,3.88746521192993
105,105,0.753968284448189,-0.267249605774587,0.907646156913936,1.11785604266411,-0.449158896659844,-0.0357547094393367,3.92081994243756,-0.842630348100514,3.99061424636914
106,106,0.766718515498316,-0.272610928050362,0.908133981472335,1.1566818673011,-0.475767237064509,0.0227767562815237,2.42172414761485,0.337896815864167,4.2304162355315
107,107,0.780046062409979,-0.278264999917183,0.908996966549471,1.19553986335706,-0.526079709860932,0.0861692775459393,1.47381077997345,1.40525880471526,5.92785695228087
108,108,0.793699363395181,-0.284137423546115,0.910168448255945,1.2135518893013,-0.559087970805159,0.142442594123566,2.695385815596,-0.723684629099568,6.38095808548137
109,109,0.807428065397668,-0.29015113536476,0.911581527423419,1.2407963267131,-0.571395116568237,0.189105019268849,0.785698438428739,-1.10823983818019,3.20151247786259
110,110,0.820983298140594,-0.296226088159596,0.913169552999473,1.26547671924196,-0.586874182486949,0.219851326452949,0.313804168018618,-0.825123257543977,2.2686512542821
111,111,0.834498719195962,-0.302405143947077,0.915074609732284,1.28250876464968,-0.586297161198125,0.229656230133819,0.319271456189322,-1.3574791326066,0.905140633956892
112,112,0.848145569175287,-0.308736119871932,0.917351677236983,1.2978375451426,-0.579320746791209,0.221094396468821,-0.438315455705577,-0.290081529276068,-1.02128301388182
113,113,0.861731070251466,-0.315146646834677,0.919800261450815,1.30899778660581,-0.559373693206748,0.201335835594545,-1.15193400422817,0.421785566887532,-1.70893475682668
114,114,0.875059112761152,-0.321567898930689,0.922213312926275,1.30795501726142,-0.532221497172769,0.179402133198389,-1.79571032213253,-0.824353823759326,-2.09360428779194
115,115,0.887929080382999,-0.32793463069196,0.924376718293903,1.28697020167522,-0.514402195390451,0.163148248973367,-1.7074373943547,-1.23135475687885,-2.00747650346994
116,116,0.900261253684163,-0.334304167147668,0.926262201052973,1.24517724274312,-0.511662138604535,0.155160395311327,-1.73459016649005,-0.758886393421571,-1.51429871726952
117,117,0.912186925032881,-0.34072252172447,0.928013715897859,1.19087624498716,-0.519985882485734,0.151547394469667,-2.48359403816197,-0.419378320530382,-2.005323982055
118,118,0.9238180517715,-0.347110683036055,0.929668646551457,1.13055201042856,-0.537032485592547,0.15386880232581,-2.76660343752052,-0.283114844420091,-0.329744002630489
119,119,0.935266432509018,-0.353390169469462,0.931261390840538,1.08735067428863,-0.555035572524795,0.162077853439714,-2.99902899437171,0.396063325199635,1.29024530234926
120,120,0.946644027757461,-0.359482584354709,0.932823731639483,1.06655132706814,-0.565503532244516,0.173775650799255,-2.57920178482964,1.31834375813402,2.00040525498431
121,121,0.957694919577811,-0.365395884215781,0.934348812480887,1.07427168605766,-0.560141632830959,0.193435656788398,-1.95442312593246,2.050289545809,3.01491602829874
122,122,0.968341520041674,-0.371185623875657,0.93581506259059,1.1101606170013,-0.533220065408649,0.220806631991486,-1.81041143362931,1.50039936901472,3.83687741293222
123,123,0.978964240053407,-0.37684294030949,0.937230843444345,1.15815429927982,-0.493414477761012,0.248734406368743,-1.47564322939142,0.419472768255422,4.23872063380812
124,124,0.989944331406505,-0.382357300094695,0.93860384222087,1.20028381847362,-0.457562541925076,0.269120606167878,-1.27618229336356,-0.439320047507915,2.94352204017517
125,125,1.00166397395136,-0.387716989770454,0.939940423095775,1.22186511355391,-0.436896765770364,0.27444281807526,-0.902853123740145,-0.0187566726600812,1.39057697338386
126,126,1.01449607464015,-0.392855425325473,0.941295587654271,1.22345104869159,-0.430790211381663,0.262459779375854,-0.0584199662536424,-0.338442307554365,0.932208230464069
127,127,1.02818823559653,-0.397779204257135,0.942667090952646,1.22532506218335,-0.43664374946508,0.238313083037372,-1.07346906897091,-0.793141874152024,-0.978946107576251
128,128,1.04218559623101,-0.402585469620384,0.943974142374069,1.22612383629611,-0.450341128293899,0.207454692163661,-1.45568100511442,-0.470841418401026,-2.23515683564247
129,129,1.05593320276981,-0.407370979795647,0.945136323635683,1.22302389125003,-0.468254144122322,0.174506556014092,-1.06849546435855,-0.105058144391079,-2.73225093926371
130,130,1.06887573729127,-0.412232199012309,0.946073512721935,1.21457408673555,-0.482363533608521,0.144148271943337,-0.57253621701361,-0.414347573304986,-2.80987041544376
131,131,1.08090111621706,-0.417202539982112,0.946777149760854,1.19653692225029,-0.492772840992281,0.115321281405668,-0.212266170281544,-0.603800034305625,-2.74027677132168
132,132,1.09238305392426,-0.422216644563982,0.947307024777247,1.17071312491073,-0.502143896875087,0.0843437496168789,-0.188404130477065,-0.86397483602898,-2.84126026362483
133,133,1.10349395898753,-0.42722266711304,0.947683557015472,1.14246763608701,-0.510287968179678,0.0526700745034165,-0.476888803266663,-1.10017481453389,-2.96394984229375
134,134,1.11440547074616,-0.432168754245502,0.947924564176677,1.11602167114109,-0.51531490836195,0.0224000065367747,-0.602660038710148,-1.28918670056976,-3.00501224456456
135,135,1.12528855067654,-0.437003135260381,0.948045131272718,1.09568473623542,-0.515739585028261,-0.00507017119077495,-0.44725420823544,-1.6689353356458,-2.99500281071765
136,136,1.13606361625537,-0.44161926952023,0.948060489753386,1.07961729489958,-0.50982171869362,-0.0297029286828,-0.000515818164199927,-1.75738192208882,-2.8699611506478
137,137,1.14661729027553,-0.446050542356386,0.947964291099694,1.06658277391671,-0.499817454552677,-0.0528975373781308,0.276025363559102,-1.60961028694358,-2.73267461281248
138,138,1.15706798969439,-0.450456074193094,0.947735112189919,1.05770593480849,-0.488056930111109,-0.0745342148367642,0.220129269344462,-1.31653474845928,-2.44684789827911
139,139,1.16753262125276,-0.454996061153131,0.947348603357619,1.05380357696125,-0.479137502307425,-0.0944422184810107,0.137719846228207,-0.883747757298741,-2.15357859515228
140,140,1.17812714519975,-0.459831588338464,0.946777541447382,1.05326380335141,-0.47573240955575,-0.112482501125815,0.271120633197336,-0.504502034146559,-1.73905251967229
141,141,1.18879440159035,-0.464980267886478,0.946021011557875,1.05841637754949,-0.478490280925664,-0.128166121918218,0.488360992634078,-0.107573836391288,-1.44461152269353
142,142,1.19945217427172,-0.470335367199362,0.945098876641169,1.06712991781014,-0.484372989451922,-0.14163689551932,0.751547559768885,0.143454522557904,-1.31468985557034
143,143,1.21017945181011,-0.475872056649081,0.944008041574933,1.07618976887373,-0.491127205383392,-0.153861802218936,0.860137552607811,0.38064719292763,-1.41724114400076
144,144,1.22105717262923,-0.481566369161088,0.942738328567018,1.0825730224592,-0.499616055827997,-0.165753711741694,0.786710043057311,0.357534398638709,-1.68753846942354
145,145,1.2321689046012,-0.487395776648807,0.941273256518573,1.08373194648867,-0.510124695373263,-0.177930632484352,0.565423201947818,0.297860975466725,-2.10510507910227
146,146,1.24361070169577,-0.493427876101993,0.939503717661446,1.08186450893629,-0.525763018358759,-0.19326486422551,0.127344899043912,0.148073376575973,-2.37703537082598
147,147,1.2553285315697,-0.499680191089844,0.937432529068939,1.08222250406175,-0.549516608853994,-0.210894623430941,0.277606831057577,0.33822153358974,-2.47551555863472
148,148,1.26718353655934,-0.506056642938183,0.935203150427736,1.08562156125009,-0.569857398666018,-0.227036277310613,0.640680365740195,0.131893455900158,-2.2555748798595
149,149,1.27903728470841,-0.512461474516485,0.932953487382939,1.09307463451346,-0.57366116858972,-0.239408133794012,0.857134926549673,-0.478560781110192,-1.43938817847378
150,150,1.29075157525318,-0.518798976198541,0.930817810017379,1.1024234722169,-0.557648252906193,-0.243380127273491,1.31724970361865,-1.52353896277612,0.156675839199032
151,151,1.30213097174444,-0.525079247614307,0.928758602590791,1.11509049768925,-0.522515937981336,-0.232646831325912,1.8436031527445,-2.36025465514772,1.53573776660979
152,152,1.31327060341292,-0.5313692730876,0.926677220128741,1.12971402468535,-0.497106375554655,-0.206695213115754,2.50967646269458,-2.22252554676605,1.94517911087073
153,153,1.32446745795817,-0.537656798688633,0.924618200438187,1.14790015239597,-0.494683847723978,-0.169410495770223,3.17123736242819,-2.15751699077605,1.78518770879426
154,154,1.33601812304209,-0.543927449339404,0.922626601504962,1.17050947598202,-0.496943800474497,-0.129907119339701,3.44598885928154,-1.94917692129096,2.46618484245439
155,155,1.34821937084368,-0.550165377798488,0.920745856803213,1.20145046259093,-0.492476146166503,-0.0956597121809175,3.76648765827182,-1.66155412328168,3.61673685889279
156,156,1.36124370434768,-0.556595734320992,0.918806499290026,1.25070729315095,-0.486751930937456,-0.0642537518473825,3.29925086248114,-1.41416164839162,3.28300243316894
157,157,1.37489355736821,-0.56322502311582,0.916781839533796,1.32214295358757,-0.489217973712495,-0.0231570117764044,3.29854538226732,-1.88418311634064,3.39842395667767
158,158,1.38891048333319,-0.569710248350928,0.914926552067552,1.39923210965159,-0.485816905566411,0.0136112235722411,1.3027027452416,-1.51023505549629,5.46110691674902
159,159,1.40303583943185,-0.575711032137987,0.91349395271356,1.43197989635958,-0.475097301563317,0.0340517673860124,1.03136636679222,0.628022241422097,4.33788387709167
160,160,1.41701133108051,-0.580890375271737,0.912737135085459,1.44935627693736,-0.481786441780984,0.0532301086452087,1.24886499683874,1.55102841990559,1.19153114356891
161,161,1.4309050592904,-0.58484803518203,0.912817281862494,1.44116043936255,-0.492501528990492,0.0686832037355173,0.787238103226425,-0.332001342495435,2.17581214574734
162,162,1.44489315077024,-0.587817293775073,0.913573221487193,1.4315542432419,-0.491116687171589,0.0687750627536709,1.01167450157495,-0.927047138099919,1.88130619872576
163,163,1.4588776984865,-0.590411255695665,0.914773207339166,1.44645403234047,-0.439674967744966,0.0489294986871127,0.175448142971395,-1.56586713378581,1.62710505204059
164,164,1.47275592007876,-0.593237403331063,0.916180395534088,1.41862384219904,-0.411937397147588,0.0334562029398951,-1.16475736473421,1.19795958664063,-0.00106143048908337
165,165,1.48641994493539,-0.596896128736096,0.917552351335572,1.37292080917291,-0.396962946386028,0.0253601066648994,-2.29979744940447,3.2080933240406,-2.13347213984321
166,166,1.49989701598458,-0.601577477760367,0.918974603485093,1.33167160157442,-0.365426395519825,0.019764987656763,-3.26384978125902,2.55546642683237,-1.65806522524234
167,167,1.51325418604486,-0.606876339768506,0.920616148103275,1.29295422629443,-0.328013975800036,0.00948940785254239,-3.39699242485472,2.13287004704113,-0.894976330152233
168,168,1.52644232471373,-0.612495137819522,0.922353421334125,1.25085439730711,-0.314518537874495,0.00347629342357215,-2.32776352246871,2.05438665560666,-0.0448621945588942
169,169,1.53941383592468,-0.618137501793188,0.924057500202069,1.21394938176192,-0.315083853986755,0.00835259577974422,-2.00860887118384,0.717964627864752,1.87109082790609
170,170,1.55212157082721,-0.623508749549997,0.925593944357211,1.19864697077929,-0.320065053915576,0.0254618719068463,-3.73213344418408,-1.05393507715369,2.98737258669704
171,171,1.56438366612059,-0.62833939879392,0.926930269974834,1.20087194628159,-0.357739861650473,0.0646500733982124,-4.97889063391248,-1.54932862594462,3.6330120330645
172,172,1.57623003663154,-0.632824502199007,0.928159311434622,1.21240378238767,-0.432028752640427,0.123014433854653,-4.38214927548289,-0.767432639238321,4.24919251777246
173,173,1.5879316878161,-0.637367154134557,0.929329774160377,1.22651604228823,-0.522404543881592,0.185815697355882,-2.39470890951423,0.000303426606101744,4.17458869127499
174,174,1.59976126689216,-0.642368911048311,0.930486966137552,1.23415725004291,-0.595110931954984,0.238888758692082,0.0763466342994277,-0.290318925887954,4.34287721072049
175,175,1.61199356670753,-0.648229686717044,0.931671943837484,1.24283981736747,-0.636460825001692,0.26689218457037,0.348404945149744,0.294361084829123,2.27903545494199
176,176,1.6248494716023,-0.6552895914065,0.932974522574416,1.25641245435946,-0.644574396211183,0.266678074689866,-0.262175828836339,0.531362389508742,-0.196573469005507
177,177,1.63815050642691,-0.663277671991457,0.934366564521047,1.26756605011698,-0.636096565628704,0.249032323251976,0.346840545225413,1.54695789363505,-1.09034240537157
178,178,1.65157293722255,-0.671678904383194,0.935709255762126,1.27843053029853,-0.622491908421924,0.219817399844578,0.184072047280565,2.45101244572405,-1.80193386694613
179,179,1.66479162987555,-0.679981240619351,0.936864340568895,1.28975184360587,-0.609019857409046,0.185597059988252,-0.00259162179566892,2.90021481330101,-2.41585184272133
180,180,1.67747998883306,-0.687675191527717,0.937694210025683,1.295223142267,-0.598920287437408,0.152070849241544,0.218258446016922,2.56048347824201,-2.99900889822577
181,181,1.68958014640001,-0.694756542632349,0.938198208934521,1.28935190480884,-0.590695437018843,0.117139956282971,0.558662845892962,2.27935896746769,-3.42937460491024
182,182,1.70131309758313,-0.701567598670952,0.938472189858916,1.27576900228866,-0.57985763264952,0.0769009932216148,0.568635736137007,2.3632254685924,-3.93691982921828
183,183,1.71276854969746,-0.708120697510344,0.93852225980331,1.25787924401778,-0.565932224781859,0.034726034166952,0.555400563049259,2.24670913452204,-4.18412712515558
184,184,1.72403519369545,-0.714428742238198,0.938352506275335,1.23883491670784,-0.548252934564093,-0.00613525304841222,0.716212472723705,1.76075077527535,-4.13919203508368
185,185,1.73520074880512,-0.720505403122232,0.937964778937529,1.22186458773679,-0.528774616756547,-0.0419167023883642,0.969037159563538,1.10372089529192,-3.9248413365295
186,186,1.74610486838228,-0.726305355247645,0.937338852542583,1.20704850739419,-0.509929493063778,-0.0731266470971535,1.11328034334433,0.622592876981686,-3.6990973990369
187,187,1.75668872834684,-0.731822842786663,0.936476817018256,1.19103138665969,-0.493289731790669,-0.102251885665538,1.15456376442088,0.315488760710982,-3.37477662168041
188,188,1.76719197524852,-0.73712986880584,0.93540988575745,1.17761720406454,-0.481181139958041,-0.129034621884178,1.02839923673597,0.426308830733545,-2.98434747403913
189,189,1.77785477347947,-0.742296596747976,0.934166211262552,1.17027205141644,-0.472478626453983,-0.153456918422326,0.593945470514223,0.433804332625329,-2.37764579985383
190,190,1.78891776017861,-0.74739216247835,0.932771336456774,1.17133026052962,-0.465425330896574,-0.175372135730058,0.243124020887909,-0.135745215853261,-1.59091309825595
191,191,1.8003503124002,-0.752308815858055,0.93114816215692,1.18301709167379,-0.460969994357768,-0.194900409108059,0.232282136661143,-0.375565297646309,-1.08864555471703
192,192,1.81199015444501,-0.757001830827144,0.929282660601441,1.20830312833639,-0.462901689343315,-0.212441154372323,0.571729178151935,-0.408786907351006,-1.01934600360677
193,193,1.82388056701432,-0.761633175542134,0.927288189713631,1.23032062777013,-0.464095298232139,-0.228782024704884,0.420031409663641,-0.744081905090089,-1.0967928593184
194,194,1.83606576245108,-0.766361983429417,0.925270087716301,1.25097177727212,-0.462034975387158,-0.243673692513656,0.306421252883413,-0.726170202428445,-1.36395290601082
195,195,1.84859210047303,-0.77134437130843,0.923326269974795,1.26873122550949,-0.455419676543629,-0.255855546325618,0.40996249747316,-0.693620451300141,-1.55026371537384
196,196,1.86160359567004,-0.776669203817481,0.921319990168038,1.28212244040337,-0.446003102982022,-0.268360983772061,0.491961760017199,-0.555169887875843,-1.57417367985053
197,197,1.87506952608263,-0.782228277243506,0.919179549418825,1.29471467814509,-0.436449145850824,-0.278494000392244,0.342477801520806,0.109202589492434,-2.03740091691292
198,198,1.88877704273643,-0.787881504712704,0.917091658873004,1.30254042466221,-0.435858951084767,-0.285324433256114,0.591144007930163,0.341875583965734,-2.2307789832351
199,199,1.90251440654894,-0.793491009218296,0.915235966589939,1.29989708784596,-0.451680421333415,-0.287711995729572,2.62817511816436,0.823552734087536,-0.564822248876905
200,200,1.91607074394177,-0.798920886077086,0.913786358326329,1.29347475454347,-0.474841507467362,-0.282026617686576,3.53999565567899,0.07904118848825,1.03728319057998
201,201,1.92925868464522,-0.804072844107018,0.912706802498125,1.28606634849233,-0.497775819870734,-0.261641753255553,3.53005215221957,0.663273496546985,1.73265174586025
202,202,1.94222224688454,-0.809038712716892,0.91187084212917,1.28154724419479,-0.523805819167763,-0.225101408556533,3.54311417380333,0.623141756841592,2.09518241037495
203,203,1.95524646756314,-0.81396872104194,0.911316683829519,1.28682903200392,-0.551528386816525,-0.176480797063596,2.96405084739175,0.121392933581632,2.48934710770361
204,204,1.96861491611612,-0.81901331790473,0.911084180822763,1.30132699097002,-0.555785942618214,-0.126403901935046,3.00389606829415,-1.50695501200053,2.55139167517425
205,205,1.98261046398981,-0.824323299488454,0.911214205239606,1.31388715901493,-0.5520116906576,-0.0834328959633713,3.61869954153193,-1.64205976703031,2.0910450704085
206,206,1.99759795832389,-0.829929412632447,0.911831515554251,1.32833911954165,-0.546875612473557,-0.0417092999423727,3.4451126606676,-1.21645361250687,1.76212721158398
207,207,2.01338689504713,-0.835734300239695,0.912917375868708,1.36440708826674,-0.543490961674862,0.00940798407957535,1.14884426601666,1.27000620469324,2.53893274930063
208,208,2.02942810372812,-0.841694642884105,0.914296364783992,1.37567344145037,-0.554872304980298,0.0551548818079709,1.85303113167291,1.07855361407646,5.9148730992268
209,209,2.04517425068132,-0.847763433193918,0.915789134121978,1.39511624937553,-0.536888333471597,0.0982829689256416,1.59024909951029,-0.898837012723271,4.39525793489038
210,210,2.06007975150612,-0.853889826143303,0.917211590210912,1.41153987816674,-0.535065910666032,0.130125099907111,-2.68404526237404,0.663286334576832,0.993070594413883
211,211,2.0740208469502,-0.860060588473763,0.918584697568761,1.40116220529823,-0.541627820217694,0.146766760807339,-0.566459083139521,-0.429166551919244,1.55151285364835
212,212,2.08736745172235,-0.866301700369395,0.920042510422311,1.38459024407191,-0.543934818720593,0.156719753946157,-0.878293553343442,-0.473173493849483,0.0469733767226585
213,213,2.10031340070234,-0.872621991224518,0.921561479110969,1.37007201581719,-0.550336657952123,0.163025605253508,-2.70867098590008,0.30994630124807,-0.640385963083456
214,214,2.11304829860286,-0.879034585909519,0.923108807519162,1.34993909788018,-0.548390949317767,0.167568216256909,-2.77020529169314,0.185891198997984,-0.379970252177783
215,215,2.12575615527048,-0.885557198503956,0.924642433107228,1.32176709030133,-0.542119907291006,0.174400676042843,-2.62181338947729,-0.175393590473566,0.0906722824106341
216,216,2.13827171663323,-0.89234029905153,0.926131383291609,1.28828896289078,-0.530142140374746,0.186813891364671,-3.1056853976054,-0.906691013387786,-0.130963433823083
217,217,2.15046689251845,-0.899375766521109,0.927599507498982,1.22552643297536,-0.528748006519438,0.208227954634928,-2.05483908255272,-0.315898661378949,1.73473640107363
218,218,2.16257713504449,-0.906448659368269,0.929081806940363,1.16083359947585,-0.546115966162589,0.23255194043966,-2.55510921563053,2.02319897053682,3.43942923275916
219,219,2.17483867608897,-0.913345146247073,0.93061361321024,1.12971249460894,-0.555319273181795,0.257278119028024,-3.07390084795579,3.05370154802767,3.45676568615881
220,220,2.187488953044,-0.919851788346567,0.932230012798585,1.14103749829845,-0.552068687475726,0.277138495060826,-2.79647164899023,2.44260548666272,4.00944431731522
221,221,2.20056455297498,-0.925935630576687,0.933995895247092,1.19247443217437,-0.532410430523013,0.292241221012844,-2.11925028670492,1.16261515120527,4.34545117825307
222,222,2.21390272718325,-0.931747836507729,0.935890673610252,1.26433731481758,-0.504225111594099,0.304623698016373,-1.81540371777233,-0.185943783376004,3.32914683056557
223,223,2.22744467939287,-0.937346826038664,0.93781923495383,1.33200129269761,-0.475858688892357,0.310865569277817,-1.04428058066104,-0.114699312935833,1.99100434136815
224,224,2.24113387432584,-0.942786096783448,0.939684525242205,1.38087738924968,-0.449256001280008,0.308753817168889,-0.23610023620685,-1.37778433870269,0.95544963880104
225,225,2.25491601023105,-0.948114951347322,0.941387600941992,1.40260865259339,-0.436203008034294,0.296382814972535,-1.50047846292886,-2.03764398053527,-0.879355724288757
226,226,2.2690537157766,-0.953303372951974,0.942979002346969,1.39087698805579,-0.442422884229161,0.270613578462313,-1.25914784488098,-0.969947506909202,-2.0188442420813
227,227,2.28358754711426,-0.958315802699717,0.944526481895757,1.36210504825645,-0.458756751292774,0.234221836178367,-0.853059039450527,-0.930633597226192,-2.70861811185634
228,228,2.29813184421161,-0.963189464445744,0.945955425710757,1.32751491611645,-0.478854095759119,0.191555905484867,-0.904873213870597,-1.56758320188074,-3.36150251476083
229,229,2.31230082647078,-0.967960168598605,0.947190711009805,1.29337224234191,-0.497571742457958,0.147854284404672,-0.794103495048371,-1.58382878336966,-3.76320398048057
230,230,2.32570845738343,-0.972662435734098,0.948156389008763,1.26442606283726,-0.511637551718236,0.107822783881453,-0.667352947144985,-1.51355772908358,-3.97084675174011
231,231,2.33821407569292,-0.97722933762997,0.948834905521316,1.23803265402299,-0.517040776485924,0.0698451830502065,-0.68711127364227,-1.42762535385926,-4.14936793143738
232,232,2.35008017345545,-0.981633418629014,0.949282394912956,1.20839353706413,-0.515856124315136,0.0309130302201858,-0.867730020919994,-1.24107570896404,-4.14269683706242
233,233,2.36152408075189,-0.985968833863302,0.949531012543009,1.17860621900332,-0.509645178311942,-0.00693573242233267,-0.724897346316954,-1.18152995131268,-4.07002646974918
234,234,2.37276140268282,-0.990331172400828,0.949610431931031,1.1513205075571,-0.501733696265134,-0.041502082871069,-0.13893170676742,-1.07671014290182,-3.8254007914381
235,235,2.38400614166494,-0.994817252186205,0.9495478899574,1.12896428020634,-0.497514508653384,-0.0703623162214416,0.263243268862242,-0.958759067014938,-3.26453660052783
236,236,2.39502555266368,-0.99926897633787,0.949387169214545,1.11345547027841,-0.497529912144921,-0.0929170725394904,0.482448063667568,-1.0004606825039,-2.89056866508573
237,237,2.40567643941449,-1.00362072012948,0.949114652997879,1.10283195489416,-0.500213637679581,-0.110645026025753,0.469956203068616,-0.843006627609487,-2.5850801384106
238,238,2.41630467813301,-1.00811007342343,0.948666916639238,1.09663331583367,-0.504728838128242,-0.124363621498234,0.519357394403109,-0.473852083239193,-1.97938359470405
239,239,2.42725486443444,-1.01297621859428,0.947976541471168,1.09773843842478,-0.508686312482575,-0.135700236963987,0.887194471634178,0.138074831807739,-1.46934590883424
240,240,2.43887112965882,-1.01845960837885,0.946972230533845,1.10829711699013,-0.51232270207061,-0.146136172041583,0.732274815756299,0.108701229219266,-1.12069333931694
241,241,2.4512727879056,-1.02474824869928,0.945594510194917,1.13028054631061,-0.519952298252658,-0.156259241693653,0.60462921390864,0.797055760218491,-0.823947939783942
242,242,2.46422513835694,-1.03168151683151,0.943893338037148,1.16412055325179,-0.533122417394354,-0.166009319553136,0.643159498800421,1.49951868625974,-0.524050976847771
243,243,2.47754270615335,-1.03897863698449,0.941951201701818,1.20246804669552,-0.553375410470787,-0.174297121550247,0.470455361350196,1.54454829717387,-0.559844559443137
244,244,2.49104261452363,-1.04636184429644,0.939840226791499,1.2382874608499,-0.578860752389629,-0.180040124728215,0.0666213643921122,1.18136562944908,-0.96290165494601
245,245,2.50454525097624,-1.05355728399948,0.937623776036256,1.26452908711111,-0.601405551436659,-0.183700386702592,0.284762392172819,0.388201380447934,-1.0834922636211
246,246,2.51812050116862,-1.06063134107901,0.935195456682058,1.28095651754987,-0.622308711313423,-0.184248840843078,0.811342242824048,-0.226259405370496,-0.962135336965917
247,247,2.53189102231907,-1.06777279808088,0.932499703329878,1.29282719225894,-0.634387991160981,-0.184920802790793,0.957572895356969,-0.781547556806787,-0.753916553930619
248,248,2.5457592357259,-1.07489290952773,0.929669704752176,1.30351909514307,-0.628151283148358,-0.184451320109865,2.03914417792867,-2.65019512387321,-0.0139405689974716
249,249,2.55962811090507,-1.08190056112217,0.926836378063184,1.32624836560008,-0.599709646150182,-0.180870911678065,2.79360283345198,-3.40739650064962,1.06675464485917
250,250,2.57340128557154,-1.08870199338124,0.924129619253523,1.36555203334088,-0.561429059090381,-0.174958682021598,2.63951782610204,-2.8318524131028,2.52400767198023
251,251,2.58698116731033,-1.09547468834691,0.921262163117039,1.40730215733199,-0.553105722837784,-0.161425422107653,3.60658029174074,-1.62808634030812,2.29606570140086
252,252,2.60043679036196,-1.10227956632936,0.918145834395013,1.43756814887325,-0.560442088872919,-0.144664832189402,4.45407941996645,-0.702438850332438,1.53801087875766
253,253,2.61392032520043,-1.1088452825753,0.915209118785483,1.46420610854393,-0.557117928484218,-0.127259652773139,4.41001508809791,-0.793659654641485,1.37206206971866
254,254,2.62758122062158,-1.11489961930764,0.912874953060727,1.49067728978516,-0.54491637438743,-0.101182528724442,3.44544204228107,-1.26303290710408,1.19145201276231
255,255,2.64156720384418,-1.12017164781074,0.911559869496381,1.51555168046568,-0.521963734620263,-0.0758803784228425,0.991796652975391,-2.35883365626126,3.38407972106072
256,256,2.65611083127349,-1.12431756517324,0.911517730523863,1.49854964741455,-0.483756293351695,-0.059934364074662,2.8300658230012,-0.0289524004937347,5.99366614005102
257,257,2.67111472710235,-1.12752194713826,0.912474405319761,1.47798747417622,-0.464782919955452,-0.0380370847653513,1.52334528466184,4.04839559293572,2.15778531779063
258,258,2.68623063879126,-1.13030932190826,0.914051426129625,1.47683787842659,-0.452206159233765,-0.00267994754676685,-1.28732574498463,0.376729935844133,0.792043447946152
259,259,2.70110786925633,-1.13320036009017,0.915867052364891,1.47553827603352,-0.431272093619849,0.0319850341520952,-1.21799311640287,-1.71421204033322,2.02166210620424
260,260,2.71539210930702,-1.13671003929197,0.917535226173164,1.51457699493589,-0.394408970530245,0.0353556979611922,-0.113947354110299,-1.47645901277937,1.65017674399865
261,261,2.72895899935259,-1.14097977673601,0.919183240075095,1.52794617721867,-0.362405430319563,0.0211142344414713,-1.92632134215766,-0.5900975354278,0.792693430860499
262,262,2.74203952384275,-1.14567029471877,0.921077829838692,1.47764746719166,-0.370484355839822,-0.00227995408654291,-1.80909130704544,2.20359422956456,-1.45388844806323
263,263,2.75481194004333,-1.15056899311534,0.923034853042002,1.41503845378474,-0.373202368660768,-0.0247711315559108,-2.49674675582466,2.30056990711583,-2.27330351016038
264,264,2.76745833293692,-1.15545866595614,0.924862140649628,1.3651779598615,-0.351659168446299,-0.0429406788259715,-3.87469448132488,0.795664767641146,-1.46075932049428
265,265,2.78016349899629,-1.16011652181153,0.92636016345087,1.31474773112936,-0.343009155319955,-0.0477160231222179,-2.54482033262003,1.29790999663772,-0.245743846292884
266,266,2.79284927303271,-1.16430539795423,0.927421291746606,1.2699045631619,-0.360370257228381,-0.0218376489935319,-2.32178968972834,1.43355051038885,1.59291727617975
267,267,2.80539270270495,-1.16816459516369,0.928180452988113,1.24087167074229,-0.381943790672237,0.024082667252232,-3.9494867369057,0.15428459891517,2.80624733218897
268,268,2.81791168335691,-1.17203451013,0.9287990271521,1.22757166976321,-0.414947166215034,0.076158630849431,-5.13584459874425,-0.626559062677045,4.02794724874227
269,269,2.83052438137198,-1.17625850659789,0.929435933369547,1.23136640563419,-0.452430294456391,0.126450691019901,-4.81950209340924,-0.387996030133554,5.19379015826446
270,270,2.84334955089452,-1.18118269968743,0.930245503078999,1.24506729508462,-0.49734755722706,0.164551608878824,-2.93236493517737,0.345284431837363,5.40542691570316
271,271,2.85654127434772,-1.18699523517596,0.93133678482284,1.26595892047552,-0.53547765383877,0.190569399670086,-1.02524178950985,0.103525667922413,4.48773746496269
272,272,2.87002166686517,-1.19346378416498,0.932610112651611,1.29708676962238,-0.561394342388232,0.210955397858798,-0.503703235785221,0.18451284207468,2.51740022473967
273,273,2.88356187274251,-1.20030665245837,0.933901150740842,1.32783838097182,-0.574819736466321,0.223267941724605,-0.534138294237599,0.572606536480388,0.303527002627806
274,274,2.89693304483307,-1.20724316364837,0.935044084493383,1.3448296897912,-0.581941369812841,0.225939477684334,0.184082497752358,1.55471422491241,-0.886798290398079
275,275,2.90990623826082,-1.21399377875195,0.935872233095659,1.34825464481302,-0.583389263253569,0.216796289333439,0.104169010086457,2.17594718297077,-1.83484968384713
276,276,2.92246388355915,-1.22072224690807,0.936402491500347,1.33861618542155,-0.576632653300422,0.191407506200584,0.0988436245700597,2.65483968570232,-2.53529821520957
277,277,2.93476303285921,-1.22761577529928,0.936747903303295,1.32238940040474,-0.559952976895407,0.152357928673966,0.251829129989112,2.48216328774157,-3.18400586907062
278,278,2.94683549822202,-1.23443227600794,0.936885042292133,1.3022503610322,-0.538701543370072,0.10541679240689,0.353625399356978,2.32232815938111,-3.83075927246586
279,279,2.95871176098131,-1.24093123148426,0.936789382292547,1.28345945901836,-0.519620326334287,0.0571721337190974,0.135104575490873,2.64259542557444,-4.19602487668931
280,280,2.97042103052566,-1.24687343010798,0.936434979733357,1.26959638861229,-0.504567488130643,0.0141952903285779,0.114213730906672,2.62594230780406,-4.29351064852672
281,281,2.98183001367502,-1.25212188828979,0.9357717171958,1.2560422178178,-0.48558383849541,-0.0251624220832637,0.244905439648448,2.05226420462083,-4.09188931751537
282,282,2.99292006535532,-1.25684190000921,0.934821563229728,1.23979226059939,-0.457657855746677,-0.0653849299103123,0.281997518345802,1.31323603353673,-3.8728316201687
283,283,3.00389191203883,-1.26124579303987,0.933662979824869,1.22306371334976,-0.427564055264032,-0.103543375807632,0.417649182179072,0.915598791195019,-3.58417522616954
284,284,3.01494677464684,-1.26554240611766,0.932370931269027,1.21063974086413,-0.401409767485386,-0.136593892933753,0.0846933330666883,0.877183659513682,-3.17768478865263
285,285,3.02628631036092,-1.26993769442359,0.931017190589039,1.20606677882322,-0.384563978274379,-0.161970741042693,-0.0505465496700089,1.03536076545826,-2.59145217972744
286,286,3.03785015211454,-1.27438095773644,0.929524541332343,1.21378072570574,-0.37576060703844,-0.177715593719964,-0.3863209006986,0.759856881291461,-1.74891736720908
287,287,3.04950490637564,-1.27873206889942,0.927848365623998,1.2293301160857,-0.375459115252822,-0.186503739050151,-0.210730751332629,0.876998495493589,-0.891410274205741
288,288,3.06134154904391,-1.28306191208709,0.926102079584142,1.24736673224768,-0.383094433897064,-0.193244693824069,0.0452860239360902,0.438257084463845,-0.142334438854278
289,289,3.07344958851588,-1.28744168933614,0.92439152920094,1.26420694592571,-0.39351441092346,-0.201684785983076,0.290080507526836,-0.254849601258804,0.0771415687961571
290,290,3.08591807424834,-1.29194245914178,0.922815570110511,1.27279568165982,-0.403066573883442,-0.213877749276733,0.167982807090735,-0.68234264243286,-0.205239697941946
291,291,3.0989096345294,-1.29658808790021,0.921306215829091,1.2810855941522,-0.411747835168823,-0.229519188020463,0.26390155655381,-1.00083873305305,-0.877868686002592
292,292,3.11236179043707,-1.30132917286849,0.919791008021086,1.29395919775018,-0.421652905920508,-0.245425488896461,0.647714682506388,-0.780458192630676,-1.44965072964905
293,293,3.12602735837763,-1.30612615740011,0.918354603621818,1.30410935488181,-0.433617888106214,-0.261257314020904,0.638976718660437,0.020719646742921,-1.52487426254529
294,294,3.1396607906242,-1.31094032254954,0.917076120815665,1.31183731508094,-0.446635972109089,-0.269697565868666,0.85331915520589,0.877367893716528,-1.75492764849242
295,295,3.1530184411687,-1.31573461258472,0.91602946122732,1.31264455208494,-0.459031965108817,-0.269981288903126,1.44314088214052,0.453813184754041,-1.58968143329347
296,296,3.16595069921855,-1.32058204984346,0.915201462382244,1.30090417548278,-0.467134112716836,-0.258731872392827,3.86051141055475,0.629323901419915,-0.294530069029158
297,297,3.17862333403719,-1.32550749392921,0.914532762731968,1.28411873385824,-0.480666747732968,-0.237247180979551,4.22494843218889,0.34195595758431,0.384932475820417
298,298,3.1912669284684,-1.33040411796045,0.914024832724746,1.26780223418048,-0.483279229452979,-0.207015792666112,3.47959688087956,0.483719991777433,0.445105408639678
299,299,3.2041114913445,-1.33516584109439,0.913679368942715,1.25887178450032,-0.48471615664958,-0.170800226845429,3.07468755806439,0.0762071342577345,1.20303147629037
300,300,3.21738608923169,-1.33968643948838,0.913499324669782,1.25996120929075,-0.483531643460456,-0.135089275045705,2.5765750353446,-0.989377464486289,1.63593797946746
301,301,3.23129556345385,-1.34375117895147,0.913451397053641,1.27261507543901,-0.463900268219388,-0.0984610335522125,2.27127465754142,-1.87259026345665,1.61653792898718
302,302,3.24568610608757,-1.34743422512774,0.91353876208835,1.28408245869418,-0.432126860706755,-0.057810552610983,2.0999167248193,-1.74021350917391,0.769545368459405
303,303,3.26024742218583,-1.35106050082079,0.913819651248741,1.31632266996297,-0.40591137518798,-0.00695301606133697,0.996024075978421,0.476035254463984,2.13248385742371
304,304,3.274670489687,-1.35495270182568,0.914347579211023,1.34441900425371,-0.39697458001755,0.0426747345297704,1.5682304197346,1.3839737671954,4.33886589244963
305,305,3.28864886286159,-1.35943122796992,0.915169768195306,1.32150741471242,-0.38028081169948,0.0712944848057873,0.9941523080548,-1.43399700526822,5.92590330870295
306,306,3.30219817597064,-1.36459523398591,0.916404801354965,1.31547601567692,-0.375461689698763,0.097008499977249,-0.339031669249222,-0.546730614124397,3.07807589323915
307,307,3.31552762935171,-1.37022390658597,0.918028818595617,1.30732266481352,-0.393435564638743,0.122552050557326,-0.898953163795941,-1.19309427878385,1.20322321467228
308,308,3.32862245734136,-1.37615847705272,0.919868421358656,1.29988862708188,-0.437146066104767,0.145432355558188,-1.44148014373528,-0.832570408203784,0.427124449955874
309,309,3.34146418696427,-1.38224428863719,0.921744975260917,1.29762370858001,-0.467692197053317,0.166531276796694,-2.76947564753981,-0.195826984084385,-0.301471936493456
310,310,3.35402897472171,-1.38833157720227,0.923473917863547,1.28757394974476,-0.480234490705214,0.182682024499514,-2.77706337476664,0.0896719954613973,-0.481148717740369
311,311,3.36618629916419,-1.39455698098075,0.92501120763544,1.25219374960753,-0.486119392456346,0.191808121019557,-3.08176909069879,0.233480117020873,-0.234602396680785
312,312,3.37795077283427,-1.40102286503243,0.92648127164458,1.19537317528775,-0.489227688243256,0.197339379121013,-3.46053673829194,-0.264280160854157,-0.211477580731685
313,313,3.38951132362603,-1.40753375626833,0.927946131274054,1.12374928363131,-0.492446750818286,0.20234792552595,-2.94041495955992,0.341310409078094,0.487914060487187
314,314,3.40105558361538,-1.4138958505724,0.929465234497114,1.06055868961748,-0.496953074071404,0.208924758402768,-2.23705593742355,1.19983703348548,2.40714842813483
315,315,3.41276982726523,-1.41991630841986,0.931096012780775,1.03246478683611,-0.497193558388006,0.221821484863953,-2.13834687303551,1.88458213705371,2.85689196701647
316,316,3.42446578937773,-1.42557313506716,0.932885130714747,1.04516470158513,-0.488871866384344,0.243324478352011,-2.0889956307014,2.63153438389706,3.8820066544701
317,317,3.43601232710334,-1.43100337683965,0.934796288444915,1.09199871046914,-0.463080239431732,0.273826198550333,-2.36328237616691,2.02191885192835,4.29065053677735
318,318,3.44768232139065,-1.4362497838698,0.93676061841552,1.15530287071292,-0.429026001238153,0.303920363112547,-2.26256537072782,0.735798583700575,3.86128649009886
319,319,3.4597512098535,-1.44135147492405,0.938706665990589,1.21253553477562,-0.396944194333437,0.326566969376107,-1.63809162585529,-0.724606924086852,3.168443823773
320,320,3.47249707652276,-1.44634437977279,0.940559369959832,1.24993810671464,-0.380849466909309,0.333307667005574,-1.37951483695741,-0.805651189564548,2.01853577988848
321,321,3.48631939449544,-1.45120571277466,0.942374497573387,1.2722942343858,-0.387731350037196,0.321859227836351,-1.03042348758362,-0.890050155993013,0.186153039400376
322,322,3.50103395380328,-1.45591203460174,0.944201216898667,1.28846060353323,-0.406686253803595,0.297155645835394,-1.74856822431337,-2.4763660572457,-0.927206392567995
323,323,3.51604602178977,-1.46049426234153,0.945951926784439,1.29715075972382,-0.432468501823333,0.264166716010342,-1.33950431920387,-1.73607559430863,-1.70313389599131
324,324,3.53076173076915,-1.46498088948861,0.947540259030282,1.29971441231094,-0.457240949382087,0.227667613006882,-1.12899863027105,-1.97454465879243,-2.38052955979142
325,325,3.54458797748893,-1.46939811439477,0.948881309885668,1.29468691584409,-0.474116969201328,0.19235584535383,-0.853923476626596,-2.02130811522197,-3.00305404643656
326,326,3.55747701227068,-1.47371525378873,0.949988136327254,1.27815638717884,-0.481291055989997,0.156367742824952,-0.582263530438357,-2.04308449966168,-3.4186071896484
327,327,3.56982884953193,-1.47791175929867,0.950922182704994,1.25057364669367,-0.484256891327168,0.116513988707594,-0.621794174573939,-1.8407264962599,-3.72638403226784
328,328,3.58172247530553,-1.4820269107031,0.951670627008671,1.21654407938533,-0.48395655003467,0.0757200544420904,-0.626136445080488,-1.58748320888193,-3.94849480090924
329,329,3.59323673185364,-1.48609919633504,0.952218786457198,1.1814411710965,-0.48182588675659,0.0365979920433072,-0.492391230495263,-1.32869857165728,-3.97375322851358
330,330,3.60445035509304,-1.49016633949365,0.952549980906537,1.15180763318844,-0.478992829536266,0.00162910222284679,-0.318890093527546,-1.37541694624983,-3.92935369126722
331,331,3.6151249416672,-1.49409185798501,0.952644576389346,1.1243647042153,-0.474122219438821,-0.0302368154371856,0.194986484366736,-0.988963775092544,-3.6022954342935
332,332,3.62521183531844,-1.49784558756292,0.952518050861205,1.0970529184591,-0.463315849302114,-0.0607921138456644,0.34263241538807,-1.11492644036994,-3.4527890157335
333,333,3.63507230010318,-1.50162639057329,0.952202840582958,1.07399198174643,-0.450883952944233,-0.0891067562546514,0.512789701158474,-0.861707164088795,-3.00029630456682
334,334,3.64506509037487,-1.50563574061974,0.951728650511787,1.06005044007031,-0.442120188855092,-0.113774128041206,0.657207358623109,-0.298147386612983,-2.6530179316434
335,335,3.65554698070639,-1.51007718154009,0.951122747083221,1.0572487846945,-0.44010323325591,-0.132944233388343,0.59647237329304,0.0372752898625249,-1.97084658828041
336,336,3.66643431059759,-1.51498127998117,0.950405219060481,1.06887908257255,-0.448026094437585,-0.144184637925003,0.705379924692225,0.537255123490032,-1.43420871509061
337,337,3.67748493812884,-1.52021142508054,0.949560997133984,1.09172533309843,-0.462134615084928,-0.148390605769008,1.02067072007749,0.865289318736869,-0.752508581828723
338,338,3.6888169444264,-1.52572282596543,0.948559720241916,1.12085699620848,-0.481316088331669,-0.149139517222358,1.20867740226448,1.23017490188908,-0.604628775463369
339,339,3.7005491803676,-1.53147323593701,0.947365865296717,1.14977778562099,-0.500860863081563,-0.149708664956031,1.23221398782878,1.24081201216412,-0.729450590329359
340,340,3.71280206234432,-1.53742361292627,0.945938886485275,1.17370356315587,-0.519642350980844,-0.153845189977821,1.16530318317713,1.41547531129643,-0.989570956238742
341,341,3.72585135158593,-1.54369959618682,0.944182402077856,1.19867057478812,-0.538561561763342,-0.163529374021374,0.887951998441305,1.26494531927854,-1.31642584049196
342,342,3.73961430310994,-1.55033095116149,0.942123920238818,1.22885039800557,-0.555568419956076,-0.176305125919388,0.731402723933183,0.582392214208199,-1.40992924911978
343,343,3.75367710698265,-1.5571375248314,0.939895589072684,1.26080052002416,-0.569734733090773,-0.188865311519528,0.673011540933239,-0.121345925221576,-1.06608495546626
344,344,3.76762932572335,-1.56393952384739,0.937616597635324,1.29123746086792,-0.577810317434676,-0.199311686914064,0.846506752995314,-0.654787526457656,-0.594682125994297
345,345,3.78106384146229,-1.57055740836577,0.935396659913672,1.31589190363424,-0.576055842281677,-0.206922381290078,1.05463861994248,-1.08866864658873,-0.229423810464154
346,346,3.79379183380954,-1.57694563796953,0.933148632885194,1.33313720225693,-0.562651623079075,-0.206750022042413,1.94146638557512,-1.75028834482384,0.419873882155211
347,347,3.80609097936635,-1.58322698268015,0.930782999467082,1.34687688983,-0.529788585366588,-0.19990887677679,2.58103140180752,-2.39951476633156,1.21140594138501
348,348,3.81825434746374,-1.58947269476574,0.928406802413019,1.36404381084922,-0.502796936589673,-0.186794796068849,2.48437159542152,-1.52246057390596,1.91223040749149
349,349,3.83057425353156,-1.59575301006851,0.926129235342399,1.37593467620928,-0.507314721346725,-0.168611502605195,3.46031468871376,-0.307490160755515,1.16335619506609
350,350,3.84334304549774,-1.60213797404604,0.92405899262385,1.38093358497304,-0.519933406969702,-0.151409021304741,3.99101363039394,-0.310292283970689,0.640239079985465
351,351,3.85663033344088,-1.60890464748318,0.922044906394512,1.38830395961317,-0.530827286847748,-0.131156412133115,4.12087539834807,-0.644506897078106,1.25772292450147
352,352,3.87024405272963,-1.61600368502919,0.9200183948554,1.39632246147273,-0.538113757592232,-0.106205128445979,2.80102050448093,-1.39987657720156,0.94531955905753
353,353,3.88408163767499,-1.62301638781756,0.918209186519161,1.40685988944838,-0.545969344027234,-0.0729552810388983,3.29033022615344,-1.64720690189073,1.68848768852211
354,354,3.89803716206234,-1.62952547361671,0.916844112330188,1.4149854631728,-0.55526601321369,-0.0422803958891721,2.34822892160752,-1.21225539846098,2.08369876191382
355,355,3.91200241945311,-1.63511570278423,0.916147492941225,1.40239992534691,-0.533208982835059,-0.0240393080102371,1.15900774297673,-1.87608581361709,4.21286703616328
356,356,3.92615623771762,-1.63951417734398,0.916338526403502,1.35404636562944,-0.50384704907905,-0.0191199354184247,1.20935740559879,0.685156691086991,2.03349330426056
357,357,3.94056937801313,-1.6430038761047,0.91727114479712,1.33874507356578,-0.483450324421852,0.00638717693413683,-1.95873865794101,-1.30293920788781,0.0748721887224543
358,358,3.95497161597819,-1.64600362382254,0.918620331783848,1.34779831633132,-0.456500586624101,0.0264750316162273,-3.3955003996437,-2.84580516668869,1.5636057302249
359,359,3.9690913956008,-1.64892795716673,0.920059402827052,1.40913047686728,-0.379799483328252,0.0287538868299878,-0.535909511181335,-2.16114708908836,3.58501349621572
360,360,3.98265447021491,-1.65218616305517,0.921259683280505,1.42952559926878,-0.337777139402273,0.0268517408399801,-1.6624825808895,1.2426099857494,1.17829212152518
361,361,3.9955049116593,-1.65577726743486,0.922234145271706,1.39217533946816,-0.338721757428032,0.0158539375355858,-3.02460971764153,2.46510172113795,-2.59865576268407
362,362,4.00782322175014,-1.65942758485296,0.92321242685047,1.33751667583998,-0.305905855203845,-0.00516306186107627,-2.96898493161969,0.884594163422259,-2.07428205363672
363,363,4.01983840484427,-1.66313336519258,0.924184872637704,1.2850931058205,-0.250131346500396,-0.0347163815356411,-3.4320391408523,0.448043353525842,-0.795825883600135
364,364,4.03178061510406,-1.66689033211359,0.925134094117976,1.22833075027547,-0.212342990073702,-0.0573254711590712,-2.94818643700659,1.2750697038403,0.683650185401787
365,365,4.0438810368292,-1.6706928159956,0.926035534050438,1.18284905190671,-0.22635136949793,-0.0516476218356412,-2.85966377855436,1.69100246159492,2.03043396928559
366,366,4.05606255231042,-1.67421779309562,0.926828761740246,1.16545011020652,-0.272794939526086,-0.0105742581267204,-4.36885484002595,0.653808921697927,2.8537080308606
367,367,4.06816954719999,-1.67746422673057,0.927531806142654,1.16977585766044,-0.325283319246633,0.0556977788904054,-5.25623813297852,-0.856773683050526,4.53880055405698
368,368,4.08031660216133,-1.68090841696249,0.928233823278412,1.19204847977207,-0.382888784275871,0.131481912319542,-4.88938809869606,-1.21928949762415,6.07726354669687
369,369,4.09261947240738,-1.68502767524891,0.929021366637777,1.21862981443196,-0.452686771232032,0.201044684504958,-2.81328034382032,0.157467994176978,6.52794126598777
370,370,4.10519513076795,-1.69030082623551,0.929976616110383,1.23861364584881,-0.506142380117423,0.246991284784337,-0.876772752128036,0.315429607567112,5.52991332167428
371,371,4.11825584721866,-1.69717424019172,0.931228638127076,1.26601076157847,-0.53820498200989,0.265823946900355,-1.10001136002962,0.250034642525433,1.91172795039914
372,372,4.13172815064524,-1.70532565052381,0.932723000060189,1.2892640666635,-0.557961532082415,0.268753107005679,-0.0544936468839442,0.825079375014411,0.363009901615755
373,373,4.14529979561651,-1.71408501520792,0.934262420196022,1.30328698424746,-0.573758897196584,0.25992109082135,1.11742432684417,1.99680724691275,-0.332818546243349
374,374,4.15865664825223,-1.72278508502275,0.935649875748457,1.31439284879767,-0.587908680850189,0.242922658258733,1.11795672658027,2.29063153529974,-1.15567599151907
375,375,4.17148248476438,-1.7307609403647,0.936689068622969,1.32052336589438,-0.599213750116774,0.221454429097921,0.853308452653048,2.51707191904366,-2.09310095195415
376,376,4.1837071199197,-1.73800566537899,0.937374798558974,1.31775347176902,-0.601553323260319,0.192798986878985,0.971907720435069,2.16958377425858,-2.78577153470101
377,377,4.19554345466977,-1.74496696141582,0.937840775152305,1.30750441515262,-0.595959579517105,0.154772198026385,1.11221210107933,2.19142649684962,-3.31684701393403
378,378,4.20709729187913,-1.75166401448423,0.938098389926498,1.29192979845398,-0.585530731667909,0.111812132136623,1.04386149705583,2.30161292125695,-3.65718385207869
379,379,4.21847316157972,-1.75811679861623,0.938157392357341,1.27657512367975,-0.57325266109482,0.0688123495982124,0.739474113879989,2.46722600364964,-3.96963333385573
380,380,4.22977445826218,-1.76434602039401,0.938025660971656,1.26428167348311,-0.558177980364475,0.029888689663301,0.594750073527492,2.06442084194488,-4.11003793710335
381,381,4.24091863982195,-1.77031056179505,0.937699450245815,1.25187880044816,-0.539161928280163,-0.00667459214787962,0.492251422213536,1.54500525470869,-4.20315897080697
382,382,4.25183373624344,-1.77600415367312,0.937176072423623,1.23585870540817,-0.517066664637847,-0.0440108210806549,0.557242029159163,0.997455532544964,-4.06127204934451
383,383,4.26264040113421,-1.78149588053143,0.936461881302882,1.2176646681277,-0.495673104208723,-0.0809114389092994,0.852414035872371,0.987860540848965,-3.88174332434832
384,384,4.2734620333921,-1.78684913565739,0.935561086650032,1.20274886121864,-0.481990818967197,-0.114693144850526,0.527439324538291,0.698673403006005,-3.40753169064254
385,385,4.28442460138767,-1.79212257732719,0.934476281276616,1.19584475126475,-0.467206069022004,-0.142250530117645,0.0216992420441917,-0.0471789372197689,-2.58594984781044
386,386,4.29542581828809,-1.79722977974966,0.93314426749091,1.19921348846382,-0.451282021477989,-0.161840791990476,-0.103917611086871,-0.543950766579044,-1.83345702562422
387,387,4.30638346618258,-1.80212651883103,0.931568342524054,1.2114389046683,-0.456031289266066,-0.176680427061569,0.0470066116893426,-0.364503827294337,-1.26940897671606
388,388,4.3174547196569,-1.80693165101777,0.929844423279403,1.22148641192365,-0.461900085054769,-0.191774640000495,0.152960325699403,-1.12109798024923,-0.756275733318455
389,389,4.32879684616698,-1.811762817764,0.928059722604028,1.22890872481108,-0.464588562065582,-0.208074177349012,0.346567313072111,-1.43902502196467,-1.24227260916712
390,390,4.34056843159665,-1.81673648398953,0.926293136890794,1.23315762980984,-0.464909030134921,-0.229660155371496,-0.18959706270223,-1.75351630779524,-1.46505272329777
391,391,4.35291703852127,-1.82188515527572,0.924430643383352,1.24278776336752,-0.461786034218177,-0.255958431453259,-0.818617670785793,-1.53989676553412,-2.54940541168035
392,392,4.36573972090697,-1.82712432234112,0.922411196758139,1.25378840519869,-0.458402032183081,-0.285318576100549,-0.0494452353120061,-0.783535495737446,-2.94301026664878
393,393,4.37881967180834,-1.83239765344833,0.920385547950078,1.26608144585144,-0.454510191232628,-0.312530432556492,0.234683616468565,0.114589647256578,-2.95106530595604
394,394,4.39193815848836,-1.83765353503406,0.918500149688067,1.27257921073786,-0.459612162366324,-0.333452706006186,0.31693589888018,0.270865547000795,-2.27238329515869
395,395,4.40487499237674,-1.84284456574482,0.916897936033528,1.26728307712554,-0.480419919011569,-0.340083819295202,2.15821430701522,0.0750416763525066,-0.819037151096541
396,396,4.41748506187728,-1.84790195495194,0.915541203670368,1.25170139649139,-0.504346351902158,-0.323846922065482,3.71569393802413,-1.10859234720163,1.20624461813785
397,397,4.42991646900313,-1.85286310780908,0.914326660341472,1.23008618919152,-0.524900577118163,-0.29024803705925,3.05448746087252,-0.804725945315104,1.63928573091277
398,398,4.44238844686137,-1.85784100972668,0.913297864372747,1.20775896500227,-0.54075827951513,-0.245575792939549,2.39027672179546,-0.29245571753632,1.99970609893927
399,399,4.45511942339652,-1.86294672876891,0.912498264681522,1.19911316741822,-0.564515185890505,-0.191348806159558,2.61724979555656,-1.18513328929837,2.7294466476143
400,400,4.46832645280448,-1.86828955315129,0.911971271833028,1.2091438691494,-0.570534668953357,-0.140377126809041,2.24766723008193,-2.66426927968489,2.79611395359331
401,401,4.48218301044193,-1.87385285577574,0.911668929573453,1.23635015897291,-0.558536361625683,-0.0955764242494758,2.85164204338196,-3.21491865798231,2.4866277651755
402,402,4.49654314306929,-1.87956525835617,0.911566417438943,1.26595510750347,-0.547437424464368,-0.0472820991321696,3.49255640426093,-1.97754611698074,1.73217050986113
403,403,4.5111434794725,-1.88545106165762,0.911741464634781,1.30240353990356,-0.536988643739707,0.00347712587419632,2.03086742797894,-0.219117025838921,1.82612627077124
404,404,4.52572184829677,-1.89153212400199,0.91226930006141,1.33676564394786,-0.545746083365521,0.0510356632292319,1.06779305094775,1.51350198300495,4.08354750777731
405,405,4.54001817635437,-1.89782769788828,0.913221971181913,1.33008709878204,-0.542763431934447,0.0825266096260532,2.28810908249967,-0.388729745891288,6.57397723774514
406,406,4.55423408920327,-1.90440348048479,0.914826617349464,1.31443079459742,-0.527858882474441,0.10222648466087,-0.615318433006874,0.211039157674142,2.76095111582522
407,407,4.56854797989987,-1.91123776985578,0.917046362675195,1.31367324000932,-0.537079842737978,0.123277742712428,-1.18157338492246,0.638461372820333,0.950772848252193
408,408,4.58266552047752,-1.91822037026643,0.919551499042209,1.30663539054501,-0.548638304608301,0.144882163224125,-0.190793312198383,-0.442600369169135,0.655776601493631
409,409,4.59628861826312,-1.92524674902131,0.922005258279729,1.30324877717801,-0.56877267504241,0.166216548677626,-2.16603153692202,0.335449974996135,0.235996188756203
410,410,4.60911374301741,-1.93221813078647,0.924062754673065,1.30281789248444,-0.576653080103069,0.186292051864563,-3.1383333561412,0.120543781249704,-0.634427170000815
411,411,4.62078161681808,-1.93914939942319,0.925601342989618,1.27760883447179,-0.575747120722938,0.201277251351151,-2.99421807537217,0.0394988235038309,-0.693411528474586
412,412,4.63149319506098,-1.94610961870864,0.926851931817657,1.22570458674073,-0.572697315081109,0.209269448749303,-3.00624140113767,-0.246237299295348,-0.332937362309754
413,413,4.64178023749903,-1.95308678455032,0.927991328936845,1.15702753134581,-0.581080580829241,0.211962878469874,-3.19429967841046,-0.00657236148317771,0.374767005532967
414,414,4.65217278747165,-1.96007082043915,0.929192746440917,1.08213804949676,-0.597641723694319,0.212889905868578,-2.37476396772479,1.55765513843142,2.95603561326734
415,415,4.66319864986404,-1.96705313451583,0.930626993006325,1.04341891373303,-0.602398918137176,0.225759700126224,-2.33162659225166,2.74158505130113,3.33071988016693
416,416,4.67483941783504,-1.97413802601548,0.932367377918211,1.06223664202189,-0.596861394619054,0.248344748502139,-2.42791529709305,3.36066410400666,3.35059728326529
417,417,4.68673440479234,-1.98133926871742,0.934301232449622,1.11740292722055,-0.584184580352502,0.279274731574023,-1.86733610438531,3.04794845471571,4.26067265085713
418,418,4.69889894755796,-1.98851040005462,0.936318718915828,1.18774454985102,-0.567358284096186,0.310124966057698,-1.55419701141575,1.23945213890341,4.18517210096018
419,419,4.71135193030235,-1.99550187588392,0.938306248549117,1.25148584924294,-0.545414046211336,0.333456505655784,-1.46994662550744,0.191969568464518,3.15705775390378
420,420,4.72411580880568,-2.00216121021132,0.940145110334942,1.29007211070262,-0.522668679085856,0.340923164357269,-0.755997431815197,-1.54793446101287,1.82304008751371
421,421,4.73747289190651,-2.00846902094881,0.941867858144593,1.30240723416301,-0.515891076659315,0.330288228849908,-1.70237660348395,-1.65244721428256,0.450206607812532
422,422,4.75141118926792,-2.01452716434679,0.943551482572016,1.29681639836206,-0.524481092955101,0.306709003868076,-1.36450681179849,-0.787018188607735,-0.582747829209941
423,423,4.76551470950584,-2.02036112647184,0.945140906129884,1.2830596762095,-0.538509535909859,0.274286886311297,-1.70546744943009,-1.44676166710275,-1.73278522294683
424,424,4.77936736336158,-2.02599470315666,0.946582493233234,1.26548973414305,-0.553202780330826,0.237591197551493,-1.6367273586971,-1.53842415145917,-2.56026276390507
425,425,4.79255273707476,-2.03145040067632,0.947824076898411,1.24832434822699,-0.562583687869086,0.20051077241679,-1.4435496692634,-1.84364727750565,-3.40509371368096
426,426,4.80507052168863,-2.03666158357299,0.948862818076008,1.22761001255637,-0.566177129227257,0.159260968895529,-0.959538843466182,-1.96112450090724,-3.90985703722485
427,427,4.81720267241339,-2.04161069143935,0.94973868997134,1.20075249107067,-0.567537816514313,0.111724172448909,-0.902941282509729,-1.95112617232049,-4.36387856287718
428,428,4.82895612591924,-2.0463925025116,0.950463269989987,1.17047404800152,-0.566939957858573,0.0625288675149967,-1.22771121956291,-2.36267990798091,-4.65326776193883
429,429,4.84033793284328,-2.0511011033703,0.951046123678828,1.13791744101743,-0.564622848741173,0.01658808817848,-0.924911150128738,-2.15237940447255,-4.59390625856905
430,430,4.85135518239479,-2.05583007238616,0.951494721894822,1.10728888611637,-0.56117698851361,-0.0215740606247155,-0.571700070610015,-1.794240885043,-4.19921767446476
431,431,4.86178301428627,-2.06039791362785,0.951845169859614,1.07617274052444,-0.554028887467089,-0.0519690350930041,-0.105253238528002,-1.47673234585098,-3.81869466899095
432,432,4.87162076498402,-2.06473837823143,0.952097061869268,1.04441881099855,-0.542413092443823,-0.0780832078817603,-0.170796236709261,-1.63586771229849,-3.44704375288314
433,433,4.88120935955269,-2.06911997243715,0.952199279006658,1.01523207810564,-0.531645153017082,-0.100377785988658,0.372694989216311,-1.01234500271805,-2.88964216471804
434,434,4.89088673340273,-2.07381386666085,0.952097675836235,0.994737443928106,-0.525299857683822,-0.119091343869436,0.850651328554988,-0.335129423467897,-2.27241993174519
435,435,4.90098843443304,-2.07909323809168,0.951735460204506,0.987611074642516,-0.525026899514174,-0.134309861303746,0.735502823152287,-0.473580859316709,-1.65722511328889
436,436,4.91147681738767,-2.08505135506534,0.951115192316121,0.996148811806981,-0.534194955873198,-0.143442131148415,1.09984599288744,0.521252027325411,-0.920565794819691
437,437,4.92212208548642,-2.09150784747037,0.950278131339833,1.02140573260759,-0.552057743142297,-0.146531469325055,1.0969631437111,0.880464823970716,-0.333831607767958
438,438,4.93297122121681,-2.09832593980093,0.949220174985522,1.05730167216396,-0.575637115542458,-0.147599658413083,0.950202384218608,1.18109262842279,-0.899694301540604
439,439,4.94407309735725,-2.10536901105155,0.94793127117365,1.09089740115226,-0.599203536157645,-0.149729410848359,0.91388068659271,1.40810962392632,-1.20239921014218
440,440,4.95547916523032,-2.11250157359555,0.946395505649003,1.11343385640177,-0.618634521502858,-0.15567652725355,0.969888280826239,1.94537608868623,-1.49747560498667
441,441,4.96736713554217,-2.11985918325295,0.944488197016692,1.12975803098806,-0.634668473158755,-0.168755918803788,0.744849435169961,2.13385183367225,-1.74679329939366
442,442,4.9797016559319,-2.12753322243601,0.942219301971541,1.14658062205004,-0.653836904163469,-0.18743520684932,0.351781800171351,1.71613263490892,-1.7770968705602
443,443,4.992218188047,-2.13532415154484,0.939761584189377,1.16408872345038,-0.671375930404079,-0.205484629544725,0.865215062288218,0.817869351925127,-1.62086382019865
444,444,5.00465448077053,-2.14303350001438,0.937275244269969,1.18586792734025,-0.673663561159464,-0.218450898340026,1.28706539320052,-0.428041197963263,-1.04039038010934
445,445,5.0167506047216,-2.15046370475747,0.934911496139328,1.20726903029474,-0.652215805734117,-0.226249225162444,1.14019737806753,-1.25073390214102,-0.429291790699759
446,446,5.02829432595908,-2.15755937136889,0.932577130893719,1.22120353921961,-0.620987112981552,-0.222530359791319,1.67516966727299,-2.17027990367406,0.231120227967502
447,447,5.03946412274175,-2.16445658619525,0.930156101729,1.23956223477829,-0.582966441038134,-0.205493739500635,2.25344732323346,-3.39223632324352,1.26016751465829
448,448,5.05058658048895,-2.17124350796143,0.927766550661815,1.25823588157303,-0.560719754735714,-0.180907994703008,2.7075377829993,-2.91713528292074,2.01269036140223
449,449,5.06198771182105,-2.17800576600276,0.925527822238049,1.26908583762079,-0.563894044590594,-0.152516499018869,3.48083331612616,-1.56820191313597,2.02681237707816
450,450,5.07399352976859,-2.18482701955162,0.923557577801681,1.27855622128215,-0.569831835789715,-0.126053314752547,3.89332686067677,-1.60126385232197,2.83994609660979
451,451,5.08676616478835,-2.19197746889352,0.921752948465453,1.29479894212148,-0.576272241301685,-0.093153247150462,3.12877661328345,-1.00071979509399,2.547877168901
452,452,5.10009018637504,-2.1993964382629,0.920038248179891,1.32183863124556,-0.584116650247584,-0.0468749255882909,2.4471585194844,-0.963862800316098,2.53514000336771
453,453,5.11372381752976,-2.20667218947041,0.918568903978973,1.35626401280687,-0.584926573680745,0.000115718545346448,0.577076932448351,-2.21846392534295,3.7209936300171
454,454,5.12742377555508,-2.21339648192874,0.917498735519287,1.34987422861419,-0.574103331388218,0.0275968362931045,2.27823849689767,-0.299783119606037,5.60467608372034
455,455,5.14094607865684,-2.21916512575729,0.916980493359849,1.33583675169033,-0.567832375009652,0.0453811709600429,1.62148769753633,3.25714057674304,2.10938500993538
456,456,5.15436152875438,-2.22358980433548,0.917197566904402,1.32729958638356,-0.545700877422191,0.0579215195834854,-0.180424116936761,-0.206891947336499,0.923965702308389
457,457,5.16783455989503,-2.22694739419612,0.918054493699494,1.33211787864682,-0.511304977184993,0.0479274898914003,-0.742058881746482,-2.36727489442869,1.23209601818123
458,458,5.18126058049573,-2.22983210580364,0.91928365748075,1.36892502437703,-0.454659423394355,0.015485845083898,-0.88069097556512,-1.68497627493237,0.0366903150584536
459,459,5.19453138099028,-2.2328340110185,0.920613227121845,1.37392494311774,-0.399051508340904,-0.0097178941795632,-2.14488823006847,0.440819572549746,-0.50923736391314
460,460,5.20753417064277,-2.23653817250197,0.921766817846062,1.33885749041393,-0.377843103402901,-0.0216120724372631,-2.26395303062017,2.16432171357011,-2.22497911469639
461,461,5.22026281211287,-2.24108892732481,0.922757119237965,1.29618658492194,-0.323543014571759,-0.0223745381095202,-2.30631564667913,1.21097799063651,-0.190509514177846
462,462,5.23278616258674,-2.24609469166635,0.923774448264197,1.25998549894726,-0.272726465396619,-0.0230195767386515,-3.58221980977001,1.11956315720542,0.017238272435623
463,463,5.24510340218947,-2.25133212362665,0.924803608346002,1.21398662873415,-0.243615062910476,-0.0212781712634319,-3.38324591799904,1.35967478348274,1.16631203429617
464,464,5.25721727424459,-2.25657681961852,0.925825322298676,1.16730195233409,-0.24900774786872,-0.00547735145797918,-2.90742514036094,1.20306060370712,2.60413065180198
465,465,5.26913331411334,-2.26160325434965,0.926816231430384,1.1505875178549,-0.271413018195188,0.0224300812748609,-5.07362146029537,-0.300384914725597,3.76169863482924
466,466,5.28067867313078,-2.26604167349679,0.92774004425559,1.15785360347946,-0.326917535225046,0.0710837932758245,-6.18372003193703,-0.434680242818336,4.2742708791125
467,467,5.29184924087471,-2.27003940387875,0.92861672320803,1.16754569929631,-0.416649947533527,0.139811041510221,-4.2904113437619,-0.322645388259386,5.20777073993309
468,468,5.30290546654799,-2.27414583611511,0.929503228633067,1.17737493189587,-0.523416137607449,0.212470737100232,-2.4166891149975,-0.054009146313507,5.48318886059954
469,469,5.31410946266617,-2.27890895431123,0.930452787266244,1.18374148412493,-0.61005786836226,0.274819451810147,-0.717930555266997,0.0778526691136203,5.37511610476737
470,470,5.32572559169614,-2.2848752083492,0.931513806580842,1.19651674565547,-0.661629832270555,0.309037808849566,-1.00390208240821,0.593756612001492,2.4780621229366
471,471,5.33799452712232,-2.29252462764133,0.932809056320357,1.21266097536801,-0.677718300979316,0.309735601152554,-0.998486461263857,1.22862574817005,0.0160923613068537
472,472,5.35074641309727,-2.30148828431098,0.934304940071829,1.22561226360073,-0.673880104977716,0.288529789768991,0.17567276740983,2.40272174356556,-1.00366090945303
473,473,5.36362981731169,-2.31104140688768,0.935812050823636,1.23648161789783,-0.661817094353306,0.254155105489861,0.49388272399723,2.78580102223859,-1.73078378127146
474,474,5.37629082897553,-2.32046234244434,0.937142202988723,1.24561158038867,-0.65001333983643,0.214792468908156,0.662042043246531,3.00084089546154,-2.61289051333126
475,475,5.38837275432007,-2.3290319532127,0.9381085999408,1.2462007675284,-0.641062409208767,0.17780699454404,1.02341022748064,2.58340826404586,-3.23443096592435
476,476,5.39981515631236,-2.33673350877363,0.938699335529984,1.23587669791454,-0.634154943699459,0.141172463982698,1.08043689666272,2.36172993978158,-3.6563018635382
477,477,5.41085807885815,-2.34404959590024,0.939042881022139,1.21618040104378,-0.622853497844184,0.0995753334976747,1.07094144600913,2.12991109099037,-3.92534424389541
478,478,5.4215923642477,-2.35101239709657,0.939162332204305,1.19155933773589,-0.607126958158422,0.0564039840740056,1.06770695555636,2.05726997461162,-4.17277890867795
479,479,5.43210775607788,-2.35765507246693,0.939078887639206,1.16734075383414,-0.586554344346729,0.0145632745958993,0.917577418034419,1.73684589859342,-4.23065109851214
480,480,5.44249310080859,-2.36401178747194,0.938811740830073,1.14887350471371,-0.563041816609386,-0.0229741850427115,0.837340519182955,1.03845426989406,-4.08868000490183
481,481,5.45257984344463,-2.36998620450046,0.938343565219214,1.13424259500007,-0.537568523850723,-0.0563952282780061,0.689053167960716,0.533851534187505,-3.77051086732441
482,482,5.46230648796622,-2.37556072875702,0.937664370328078,1.11890890564643,-0.513104710216191,-0.0880622159723988,0.627138453336793,0.543687833423825,-3.46015516860175
483,483,5.47192322772736,-2.38088526731334,0.936800568779939,1.10559928285001,-0.492402115263902,-0.117337680593479,0.519073761967544,0.834240925782078,-3.02743290189796
484,484,5.48168193827159,-2.38610601241131,0.935775684995876,1.09811565655074,-0.476199382859843,-0.144428652721521,0.24214030368635,0.767430094716284,-2.51859043639066
485,485,5.49183595219092,-2.39136644983872,0.934610939112107,1.09707668719873,-0.465110560149932,-0.168920498867866,0.058530811067427,0.216661018053428,-1.8094990140349
486,486,5.50237848418035,-2.39661222568985,0.933273960863372,1.10848726965278,-0.463461676558675,-0.191255828594568,0.319690770142822,0.0725547048484161,-1.48652838938778
487,487,5.51313978366216,-2.40174482440187,0.931753605883444,1.12901858949934,-0.471560179188249,-0.212017498102131,0.637069602224038,-0.622701917173787,-1.25904360745856
488,488,5.52412958816612,-2.40684032361463,0.930096677106275,1.14938636238365,-0.48123408865439,-0.232075159299307,0.611995669107576,-1.21674185970682,-1.32000770924585
489,489,5.53535878568074,-2.4119744159196,0.928342023329418,1.169055473813,-0.488033525751704,-0.251490562581067,0.0805561730179893,-1.59970044381233,-1.90344544492731
490,490,5.54684051566603,-2.41722224649066,0.926520862412037,1.1869932794427,-0.48426748695233,-0.267626342730044,-0.438495514681826,-1.74689974911903,-2.59596170782183
491,491,5.55872258395593,-2.42261113928926,0.924459103002597,1.20114408033031,-0.470470953169107,-0.282443510838814,-0.627937622434201,-1.66384469389302,-3.05615295131977
492,492,5.57099711824425,-2.42808936024508,0.922128118413279,1.21307091773055,-0.452053831093601,-0.296805329117858,-0.31693783911101,-0.823092880197153,-3.05804709091403
493,493,5.58344614049784,-2.43361419924337,0.919769466202578,1.21486524380062,-0.449554593800397,-0.309376481091388,0.65229694894974,0.072486626972879,-1.95110430457893
494,494,5.59585284254172,-2.43914417585355,0.917619629872648,1.20573856440285,-0.47121921158773,-0.316106980903325,2.44826653141651,0.399594116839668,-0.248769750770716
495,495,5.60800146135567,-2.44463850273576,0.91591116344443,1.18982021901596,-0.508652642061691,-0.310794224455546,3.66017242230401,0.375757725821553,1.42338339760727
496,496,5.61961350199277,-2.44998618860121,0.914642033094824,1.1719022167112,-0.541956945908208,-0.284765197681212,2.79706101890348,0.99794203588251,1.36888650998422
497,497,5.63083563016736,-2.45521524390707,0.91364810202264,1.14797761638558,-0.569825346556652,-0.240747891162501,2.64330074666759,0.433448572264204,1.60369847264058
498,498,5.64208897858762,-2.46049331404783,0.912919404460748,1.1313551090304,-0.599870680816632,-0.183237835761198,3.20702201357502,-0.510163008788891,2.8450996944627
499,499,5.65379385071118,-2.46598826624968,0.912447321183152,1.13002410554852,-0.617061748485902,-0.125356804180442,2.89369298280453,-1.61532487160222,3.36811212140893
500,500,5.66637021271697,-2.47186854457787,0.912223850737571,1.14670910444783,-0.622107399543211,-0.0803139175532029,3.27063772007577,-2.32879304103775,4.10261772187191
501,501,5.68010730381508,-2.47821500652632,0.91224505748891,1.19182846669706,-0.619662921250796,-0.0492944361042766,2.85079797805355,-1.90874231094196,3.65000541136487
502,502,5.69472321527349,-2.48491630909023,0.912522256210062,1.25235181936673,-0.607131189396972,-0.02047180097848,3.16177775311448,-1.10141029310501,2.19646316152374
503,503,5.7097815436861,-2.4918519886006,0.913069234877506,1.32737392173918,-0.589206822546105,0.00886381991657878,2.73279242296934,-0.517818542290179,1.52356854693953
504,504,5.7248473295415,-2.49889972137191,0.91389694795636,1.40874935807932,-0.586264193736134,0.0400449323524613,1.36709919496438,0.914325114790798,1.47296605347671
505,505,5.73948737106926,-2.50593499620593,0.915013218656525,1.42400325129269,-0.594011336040435,0.0596827639350085,1.65634884931121,0.240131638487404,3.65992388848082
506,506,5.75391375951204,-2.51300110471187,0.91665063554259,1.39042914911585,-0.578361697691414,0.0724359785529543,1.5589692203128,0.08474704638232,1.79385864411004
507,507,5.76841899492067,-2.52017382516161,0.918813468722823,1.35565478536231,-0.559685815561603,0.0917519695616401,-0.381976438420768,0.0952516517256421,-0.706262020353905
508,508,5.78269078559633,-2.52737890943551,0.921161832816258,1.31877610765711,-0.54351969409108,0.117755260388188,-1.38978575354943,-0.129496015203717,0.153678748364373
509,509,5.79641431926258,-2.53454740053427,0.923349425695307,1.2844534362763,-0.560700612978032,0.146863968588903,-2.81249711821557,2.04390039551208,0.531309368097597
510,510,5.80927133399353,-2.54161539117574,0.925022493121696,1.25921295266842,-0.591823813717636,0.170847065683646,-3.18696640592967,0.954706814305191,0.945767587899466
511,511,5.82089373662347,-2.54859266890621,0.925965001346054,1.24690511571332,-0.604093125285547,0.180686833995817,-2.69674195501019,-1.2094770391948,-0.38615213494458
512,512,5.83149437053466,-2.55552291052038,0.92641346644716,1.23277972145353,-0.604836177160886,0.17212194029098,-3.6607346634073,-1.90632053273018,-1.57846842810814
513,513,5.84162285588306,-2.56239871126588,0.926685191498432,1.19826678501893,-0.615408947878781,0.163052332924235,-4.2720732359039,-0.643541742987636,-0.190447487228429
514,514,5.85182609613641,-2.56921691438241,0.927093740646994,1.14372303973371,-0.640867750513468,0.15381148650569,-3.65958640452301,1.3173499012957,1.52046116852638
515,515,5.86264731216677,-2.57597796295589,0.927950371642241,1.1107019069917,-0.645113892463426,0.156991910430814,-3.2987753451419,2.39568882709123,1.77499547412234
516,516,5.87403215527436,-2.58271401543267,0.929368070492747,1.13096786272695,-0.606384519294906,0.18607180069113,-2.65940387626393,1.27052813569141,2.14238016144993
517,517,5.88561031356153,-2.58943405046205,0.931141903970262,1.17793995346435,-0.554044946030302,0.233218979918793,-1.33226582095998,1.61176406026154,4.42056955754122
518,518,5.89745103639693,-2.59610182924458,0.93310514041971,1.22964330388374,-0.50848644375744,0.283350970757986,-0.539226772727294,2.00143133739786,6.41895254616806
519,519,5.9096268369216,-2.60267735315697,0.935086690895399,1.27647877847425,-0.47787968424385,0.325258092252514,-0.144435298682547,1.09947010530684,6.0000326364125
520,520,5.92221338499925,-2.60911741908275,0.936909425875421,1.30871498548533,-0.458963555192782,0.345792455686467,-1.56033872009559,-1.29973074873387,3.22264124714504
521,521,5.93557614969213,-2.6154084463418,0.938619549813707,1.31271017131323,-0.469305898408964,0.339644363464954,-2.27710539281124,-0.101260559401928,0.211913098328191
522,522,5.94966781690403,-2.62157797917529,0.940333319282666,1.28951206872422,-0.504649376764856,0.316220041150667,-1.37220539631023,0.53311988161736,-1.15914419746644
523,523,5.96394765711944,-2.62764113044226,0.94197528604531,1.24889652513009,-0.583967388052095,0.282871433964145,-0.590530657048371,1.85484278539719,-3.04890214951435
524,524,5.97787486955346,-2.63361197809324,0.943472380499415,1.2140904364903,-0.566074502225082,0.243955249281937,-0.29895637639369,-5.52095406278811,-0.932018731388976
525,525,5.99090835051267,-2.63950390032367,0.944753890775693,1.18672944205947,-0.598133852151543,0.208278314951382,-0.73678277118932,-1.05382158794443,-3.32687416228561
526,526,6.0028935609079,-2.64527790091126,0.945830796720018,1.16040343683794,-0.623594579193184,0.170641953857573,-0.670178949195974,-1.2595001619393,-4.19063795407092
527,527,6.01419566156994,-2.65092346476421,0.946757941646793,1.13689184478666,-0.625031777864636,0.127418580137153,-1.17076737418915,-2.48698150553119,-3.51777482076485
528,528,6.02505244337339,-2.65649598811553,0.947529219405927,1.11297221246656,-0.630911545484887,0.0835847220132661,-1.31261268494376,-1.74646021677825,-4.21554119665182
529,529,6.03570113153687,-2.66205015651456,0.948135239504108,1.08999505195267,-0.631127998386602,0.0423836382085444,-1.1712652226641,-1.73139528896157,-3.64775480442238
530,530,6.04637847605274,-2.66763981940349,0.948563309531714,1.07328625834961,-0.624828896312286,0.00661193353447424,-1.4790577488062,-1.79449514510824,-3.17915293436055
531,531,6.05701317456977,-2.67318851188136,0.948808678605072,1.05790899539949,-0.619160118492181,-0.0237822945968775,-0.86945465186852,-1.05701605710306,-3.02335609654541
532,532,6.0674498631736,-2.67865675365126,0.948883485453855,1.04419920717148,-0.609990949875559,-0.0512256566810455,-0.63351855386493,-0.84592540242649,-2.88804741515228
533,533,6.07779653715904,-2.68415523314147,0.948795703487938,1.03541003345251,-0.593963650352378,-0.0757744100826875,-0.686741256618546,-1.15982127591514,-2.46406969405511
534,534,6.08815844381024,-2.68979705261971,0.948550149251227,1.02857216018782,-0.582719341402504,-0.0974690585794298,-0.189785295602047,-0.644342920571245,-2.23091735420757
535,535,6.0986388772271,-2.69569730660765,0.948148713215855,1.02591733557032,-0.572588416397606,-0.115680455862697,0.363656139630664,-0.419087309424846,-1.70061955674008
536,536,6.10912789473681,-2.70185597673378,0.947611262452102,1.03085203177875,-0.56322388443389,-0.129281026449468,0.827473814056377,-0.480002231145331,-1.29035505251825
537,537,6.11955093687957,-2.70819653227457,0.946939515734784,1.04121463868231,-0.557775022673661,-0.137977331629839,1.43972519301112,0.373155621270096,-1.02798953903855
538,538,6.13006434323201,-2.71472102210637,0.946100879486022,1.05027629441455,-0.554519265377475,-0.144184255288375,1.80849436195132,0.647633742212564,-0.792628831245971
539,539,6.14082585873616,-2.72143348212431,0.945054742490528,1.06396500737787,-0.55781703027746,-0.149768378472437,1.45284121437652,1.07139060063515,-1.34539125246818
540,540,6.1519953614479,-2.72834098989843,0.943753223464887,1.07933234850197,-0.570631535311401,-0.156478555266546,1.39988226819208,1.08363743007326,-1.7758428402953
541,541,6.16375811253206,-2.73556267086967,0.942072279634547,1.09832199369933,-0.597954606701042,-0.166786639436216,0.969073663196861,1.36638152614588,-1.96916590518283
542,542,6.17600780592252,-2.74309896872618,0.940038010903216,1.12385767262136,-0.636835410123192,-0.179658573064921,0.664016975214086,1.57030506051862,-1.88896513598774
543,543,6.18847041357264,-2.7507811346682,0.93781674464058,1.15476340845891,-0.674986585764145,-0.192644643088551,0.426229617889453,1.16978225297734,-1.85080726976371
544,544,6.20087330989613,-2.7584389549136,0.935565404404165,1.18724934609056,-0.690424126433105,-0.205201413502297,0.628504212234917,-0.145692326510422,-0.614470392912144
545,545,6.21294487229326,-2.76590016542707,0.93343437874682,1.21889802761206,-0.663759949754945,-0.214028745186323,1.54472278465276,-2.22566662026366,0.916746116097005
546,546,6.22455001168533,-2.77314391932798,0.931356370431341,1.25141036896856,-0.62422188621649,-0.211612098790308,1.79138669712447,-3.13206034333596,1.67995393492905
547,547,6.23587479598076,-2.78028530638109,0.929220531889093,1.27721452973127,-0.612363090325212,-0.19687848499867,2.14408400457351,-2.71230311527058,1.64735008824509
548,548,6.24712858470614,-2.78735355201006,0.92711372272218,1.28413269186418,-0.62282465966294,-0.175778226258834,3.23922637314336,-2.01637169201771,0.938970610367567
549,549,6.25851945627496,-2.794377837579,0.925121924364186,1.28497652405211,-0.625834470656159,-0.152509413038107,3.84244009704297,-1.60446165397857,0.462308895626775
550,550,6.27025477301032,-2.80138830426282,0.923327056521703,1.28991623847018,-0.613753041398742,-0.130259166117479,3.76154510040014,-2.36540549129279,1.07232456473901
551,551,6.2823285746649,-2.80860221278361,0.921573707087649,1.29977976933698,-0.601707803953058,-0.0962335529426613,3.46323393506987,-2.07123804644735,0.965647720488702
552,552,6.29460337450742,-2.81599669285844,0.919808550758819,1.31769054034378,-0.59218257101579,-0.0539944632253092,1.32694468201782,-1.94259589072354,2.90986874380454
553,553,6.30708785346799,-2.82324415843788,0.918262958226267,1.31507471013401,-0.567845145879832,-0.0214762327909077,1.71261484451356,-1.63512342295144,5.73196780229585
554,554,6.31978951737447,-2.83001945262367,0.917167916920808,1.29306741556882,-0.548600428528059,0.00208537533132494,2.2746042441773,3.21184231589218,3.44501955370425
555,555,6.33271528594231,-2.83600024670723,0.916755134385322,1.29738812439876,-0.546675016298418,0.0236482372116959,0.36487457867869,1.82974806210401,1.57665308665984
556,556,6.34607917991865,-2.84083992280385,0.917268504223122,1.29202519653358,-0.54330874033276,0.042221839376299,-1.30290549267459,-0.659244351227776,2.66626740528886
557,557,6.35987855309634,-2.84476245194201,0.918563487096397,1.32062656003662,-0.519403082773183,0.0414621638419159,-0.315147122705101,-1.03043775793758,1.62829568987726
558,558,6.37379389936212,-2.84830013565217,0.920286782717247,1.36366961801326,-0.470494928704317,0.0173047867037408,-2.01343436926884,-0.571882503937024,0.726363201801633
559,559,6.38750169349556,-2.85197905786176,0.922077658364706,1.35129259239675,-0.453224606411974,5.45583987894395e-05,-2.27291377577184,1.74528890662318,-1.29589285358291
560,560,6.4006737689197,-2.85631799476167,0.923568011138272,1.32160680749395,-0.417328350388172,-0.00864391486990465,-2.24290482934713,1.63100778758005,-1.19430308131336
561,561,6.41324219231158,-2.86146858043702,0.924739035077271,1.2838757633986,-0.38012021754991,-0.00561537831042303,-3.16246963951792,1.31996512911192,0.119225284525133
562,562,6.42542015247962,-2.86707896557048,0.925841260305663,1.23486403416505,-0.356865580832798,0.00296873781599231,-3.37955894480751,1.28830949965538,0.256121831898528
563,563,6.43730097415928,-2.8729076820096,0.926904384124075,1.17674368530712,-0.360402497273788,0.0142851758347644,-2.30581918413678,0.627102411923336,0.814030595674447
564,564,6.44898073244755,-2.87871424838645,0.927953294810354,1.13414221821568,-0.369965805958171,0.0319405020086449,-3.19568348239085,-0.628191133228839,2.45161514102899
565,565,6.46055732945971,-2.88425938799044,0.929007486527782,1.1140182225606,-0.387488624947696,0.0579533310175408,-4.31016285883152,-0.990502281211042,3.46108149491544
566,566,6.47184181989445,-2.88923056238974,0.930060767949036,1.11458109450999,-0.424082695573614,0.0974385741793447,-4.49198270588963,-0.184792214763141,4.01667744773315
567,567,6.48276966097114,-2.89378390061514,0.93110319378302,1.12700624513557,-0.481763394476961,0.150573062386825,-3.32436643366371,0.43262358123193,4.21408010614329
568,568,6.49362624622346,-2.89838445992141,0.932143753284803,1.1417941679502,-0.543313347068342,0.20511722875285,-1.63227090577726,0.896374090976658,4.03430134257365
569,569,6.50469760904727,-2.90349685076628,0.933188066042843,1.15867469994784,-0.583797569588811,0.250376892361563,-0.223992159873849,0.690907976772263,3.7634396265374
570,570,6.5162708194508,-2.90958515796865,0.934237554722569,1.17875427181839,-0.603070840648049,0.273017215418245,-0.357603915235715,1.41127512712884,1.67054530970137
571,571,6.52863066458121,-2.91707847324306,0.935377109596351,1.20181055033845,-0.607340878583279,0.270622638744843,-0.273275269063607,2.16243994804999,0.0636097937030494
572,572,6.54159001112908,-2.92566400511488,0.936603841592859,1.2252314171972,-0.605811550330135,0.252785502578162,0.31325984270329,3.01071889040343,-0.728245520549996
573,573,6.55472764057779,-2.93469580873404,0.937785069875774,1.24924313280515,-0.601711457151506,0.224577040355722,0.775316670943393,3.35351880805793,-1.49118027600496
574,574,6.56762070460428,-2.94353118597664,0.938789351879687,1.26935058672767,-0.596811765866219,0.191641960126683,0.892614534819489,3.01353413562716,-2.43631026370877
575,575,6.57984455800374,-2.95153021820669,0.93948655788986,1.27574561376196,-0.592741945778023,0.159523505491264,0.954910837622518,2.51662062195197,-3.06781029597312
576,576,6.59131283435627,-2.95863509823219,0.93986384110739,1.26314665336204,-0.586847616729396,0.125611031956222,1.02013086219644,2.21657142416724,-3.5067691932251
577,577,6.60231008344416,-2.96527748112404,0.940011337554099,1.23654931832473,-0.575952084716105,0.0865217581677886,0.95342374808017,2.02964374643768,-3.75692902885578
578,578,6.61296596001121,-2.97155351825289,0.939952923129336,1.20282242555555,-0.55793821595954,0.0450719144707345,0.905003469380455,1.53646273321058,-3.85269070754116
579,579,6.6234097103909,-2.97755935676446,0.939710837256553,1.17048696003599,-0.535366166257214,0.00473869498358628,0.644151181813898,0.988540355798467,-3.80241057850307
580,580,6.63377038547271,-2.98339121798751,0.939305605634905,1.1455030925996,-0.512938040639135,-0.0311367432769916,0.556322693733132,0.539301096200821,-3.63498179570571
581,581,6.64386371521519,-2.98894598093615,0.938743776052514,1.12626163646708,-0.494004618085688,-0.0630823001049882,0.404153756952416,0.510427890916649,-3.3621021510344
582,582,6.65360264055484,-2.9941639791507,0.938013992164367,1.10718251513579,-0.479830758128227,-0.0935566919733766,0.175481944662857,0.812802778048057,-2.94348609271252
583,583,6.66326310017292,-2.99920464574936,0.937107074744687,1.09168961089085,-0.470873168202862,-0.122361569254233,-0.07393215789812,1.15905710733615,-2.46052203960269
584,584,6.67312253829052,-3.00422493751655,0.936011959404278,1.08402004786181,-0.465458508279654,-0.14905158384647,-0.24863375063076,1.10642444156832,-2.02868690843958
585,585,6.68345971931225,-3.00938010822858,0.934716207724313,1.09559385994443,-0.456059030787823,-0.167726139428186,-1.37372190359257,0.111440148125951,-2.08355640500847
586,586,6.69428660632026,-3.01467662032753,0.933169508327305,1.10455658402913,-0.452822915874485,-0.19144961901195,1.37364230176053,-0.0900529220539023,-0.840450831899255
587,587,6.7054177777043,-3.02001136944777,0.93138393845576,1.12344312919629,-0.477403446569202,-0.209204557863123,0.623792415107846,0.341303167054896,-0.750737067123535
588,588,6.71683628834514,-3.02537304716375,0.929436219176374,1.15851700137096,-0.48184920801785,-0.221411984583467,0.733697443713059,-1.27211023018106,-1.33783903160007
589,589,6.72852544794953,-3.03074800786274,0.927397300045009,1.18811781713147,-0.490143403581519,-0.234523229463152,0.483033240074463,-0.795246000004607,-1.47960738457954
590,590,6.74046974454125,-3.03612035136564,0.925332287043087,1.20758683703384,-0.491975916079699,-0.250881429546587,-0.0850844900929636,-1.00659955099549,-1.66799059455626
591,591,6.75280828416321,-3.04151684207583,0.923099692408909,1.21351428919849,-0.489077078651423,-0.272169349427633,0.287064610171318,-0.805391085669087,-1.71244043896744
592,592,6.76555041535005,-3.04694536261746,0.920652339454715,1.21241759608643,-0.48460168390539,-0.295152308556056,0.71645156321978,-0.232901446999148,-1.80479429245909
593,593,6.77848756130302,-3.05236021847827,0.918188555564839,1.21304505020477,-0.47219934900862,-0.313551101580592,0.684671607513623,-0.0279772222240483,-2.01616995264619
594,594,6.79141270160973,-3.0577154397088,0.915900882426676,1.21394839634221,-0.455681385344517,-0.322530630145545,0.694927313393984,0.364207803667566,-2.07761832741672
595,595,6.80412081513378,-3.0629647750482,0.913977063324113,1.20827410249985,-0.456099848007086,-0.320121474774542,2.70668797593159,0.897034344335014,-1.14708743974137
596,596,6.8164567528151,-3.06799616871725,0.912357968304131,1.19647265298125,-0.469991620075997,-0.303633505033748,3.72661583763419,0.303239493256153,0.163710280235256
597,597,6.82855992602873,-3.0728390967946,0.910907906123949,1.18063632788443,-0.492623586233057,-0.274871042954647,3.83446610126725,0.0506322857833373,1.28959240307538
598,598,6.84066828519133,-3.07766041667359,0.9096973192423,1.17203527002332,-0.508904241552691,-0.236171804403785,2.81602705637014,0.431577476194199,1.37616991905795
599,599,6.85301958581537,-3.08262800627482,0.908797273721859,1.17136280812364,-0.520737584056258,-0.192615380814309,2.77133648200462,-0.436137044370628,1.81166095291787
600,600,6.86585104141253,-3.08791052364352,0.908280202458239,1.1837819532794,-0.540999757693998,-0.149362402856562,3.53528141089963,-0.556290740759181,2.94070189375161
601,601,6.87928550056414,-3.09355087833884,0.908145497496374,1.21904350323174,-0.552938367025484,-0.110493479491695,3.3609614164558,-1.07375288788618,3.15422615652421
602,602,6.89316366092971,-3.09943986302381,0.908348445424612,1.26800842478199,-0.552470571957284,-0.071732685301298,3.62880377426355,-1.89158734439572,2.5886199907391
603,603,6.90729874530419,-3.10551705182465,0.908896233415064,1.31305406496868,-0.549157288736827,-0.0341911550552839,3.60229390863139,-1.48104450832173,2.1186210795729
604,604,6.92150568224248,-3.11171991052158,0.90979281786778,1.36867823963081,-0.55175727589511,0.00751911086387773,1.84359964288356,0.452373481110537,1.95793952836312
605,605,6.93560208776224,-3.11798325221594,0.911037845364723,1.38257295570866,-0.567730201787345,0.0396331470414547,1.7096964348472,0.15757730162471,4.50768430538873
606,606,6.94984631420981,-3.12432780010524,0.912885017622589,1.36802890483873,-0.556294882155621,0.0680754481045837,2.19479687144439,-1.22723584478541,4.01659441915462
607,607,6.96436344805413,-3.13079196532911,0.915343898473034,1.34473921198578,-0.552429627967739,0.0919418529728833,-1.89482251487607,1.54612802731151,-0.240630894960458
608,608,6.97877301855364,-3.13733643029428,0.918042842306931,1.31531145456194,-0.55148042144221,0.114397969924197,-1.75168421067242,0.566240923072586,0.468581034286008
609,609,6.99269302086694,-3.14392502491418,0.920604898159902,1.2929154295175,-0.542976497943105,0.140769527220923,-2.05092143583167,-0.155746658446803,0.0312228603962727
610,610,7.00573873446014,-3.15052499408684,0.92264662506083,1.27900725541971,-0.554451201747804,0.165283229429145,-2.9640987553101,0.783937634436953,0.133313024918687
611,611,7.01758344672684,-3.15715472549322,0.923992835033492,1.26873710170107,-0.565225449916026,0.180141532028643,-3.1428233199827,-0.801320301877906,-0.233842968233032
612,612,7.02848636428818,-3.163834477583,0.924903395011955,1.2537644350865,-0.56977006912136,0.179938540317892,-3.17634692390215,-1.73823475424544,-0.784688386091318
613,613,7.03893749591196,-3.17053922659361,0.925638674451157,1.22767798888881,-0.576555683737273,0.170275568654125,-3.38197859910044,-1.05155786674377,-0.890060818087267
614,614,7.04942376919061,-3.17724810460309,0.926453350165837,1.18160727296049,-0.589521748664154,0.167071971466502,-2.60150770387957,-0.405247665696218,1.03474043432545
615,615,7.06042835248046,-3.18394368140047,0.927597896795756,1.1373665746438,-0.608373791824597,0.170594515600111,-2.47018276744573,1.71890935212938,3.11191687859471
616,616,7.07186814400215,-3.19074368856394,0.929148438393276,1.13045559349837,-0.599885414465048,0.19233546341457,-2.92015082068726,2.68225251251292,2.87456416781992
617,617,7.08341367349657,-3.1976653962894,0.930938647410621,1.16094975553704,-0.56177464062127,0.233194585556846,-2.71872500660665,2.6003995527903,3.95137928146265
618,618,7.09517717814487,-3.20454074599866,0.932853553426138,1.21019797092844,-0.515398062228177,0.276749298994625,-2.23244952443055,2.37880257247815,5.00953485565816
619,619,7.10727255656265,-3.21120103519024,0.93477475983086,1.25505380434586,-0.479874553759837,0.313463881707451,-1.340426515976,1.13599878915535,4.82640232830881
620,620,7.11981547280508,-3.21747742103616,0.936578631624942,1.28545407835962,-0.460685277244654,0.332387323762966,-1.35645749450188,-0.142698572112497,2.90466384043829
621,621,7.13311578076044,-3.22329016855762,0.938317153499236,1.29508819636376,-0.454314933519601,0.331065850366961,-1.03447335736595,-0.453064579923615,1.52844924013254
622,622,7.14709640075508,-3.22875513678242,0.94007111240358,1.29139466973373,-0.460639002940466,0.316397809539282,-0.847916841204992,-0.895389644460488,-0.00245605598469321
623,623,7.16129511917186,-3.2339943970154,0.941756517351768,1.27748609885352,-0.479754749941497,0.292432004829166,-0.981866670263472,-0.950964493998846,-0.973816606306547
624,624,7.17525036221994,-3.23912746113669,0.9432911778091,1.25972631821754,-0.502950327807709,0.263298471303495,-0.969799136541483,-1.17973586835524,-1.78258809143215
625,625,7.18850082859985,-3.24427157473949,0.944594958786453,1.24280521184188,-0.520022648139666,0.23345293118291,-1.06903839040507,-1.59912444622657,-2.51952541159288
626,626,7.20097048964366,-3.24941332754981,0.945657162094857,1.2249711748636,-0.529865290463558,0.200094663366919,-0.746091498530848,-1.72035754164438,-2.97488854475994
627,627,7.21297078494391,-3.25447355360953,0.94653731310612,1.20455109393461,-0.538272115055971,0.160899190429088,-1.08844732815111,-2.1651226577961,-3.45344911055036
628,628,7.22462180328819,-3.25946828297858,0.947260028370412,1.18107890472439,-0.546557145319618,0.119264722511358,-1.14878675652261,-2.09721757650044,-3.63786063768253
629,629,7.23604379444201,-3.26441213575711,0.94784740202515,1.1561903301537,-0.554757442337414,0.0785656012979908,-0.990501379789797,-1.71195335769422,-3.59904234622236
630,630,7.24735719632513,-3.26931840422969,0.948318921872085,1.1343123451645,-0.559300291790761,0.0423017077677903,-0.764047617343477,-1.58083764914467,-3.52519893925305
631,631,7.25850420531289,-3.27405907210904,0.948695910100582,1.11583552252256,-0.555551182270064,0.00952823899981312,-0.577419212995869,-1.59872990693161,-3.58098174789093
632,632,7.26940848539984,-3.27862136633945,0.948970040366928,1.09781389854674,-0.545492071870655,-0.0221427095846086,-0.275097963467183,-1.44069118753819,-3.39741327058408
633,633,7.28016068746277,-3.2831922866615,0.949112368103678,1.0817357803762,-0.534050235850502,-0.0515986608224486,-0.00974036747542636,-1.12844309155853,-3.11842201939382
634,634,7.2908487726062,-3.28796078280412,0.949090956745949,1.06927083108924,-0.526086996048742,-0.0778506401925931,0.55823705658941,-0.588940903416161,-2.64593150204702
635,635,7.30155853039776,-3.29311726425406,0.948870954915005,1.06405452154064,-0.522492381942212,-0.0998381532654863,0.511506226726334,-0.591697192153836,-2.4464915599218
636,636,7.31210168884228,-3.29867908973639,0.948483149846723,1.06400292621452,-0.525823953206996,-0.11515825246579,0.479323604808974,-0.475981479154181,-2.06709975844279
637,637,7.32241636935617,-3.30451918564077,0.947953870256152,1.06681779778962,-0.535067194133718,-0.124240599865574,0.844415502131991,0.510183882818678,-1.43060445083046
638,638,7.33277706414392,-3.31061255545426,0.947235894853481,1.07514347071675,-0.547534332725763,-0.130825534690723,0.971881753857924,0.670973458603595,-1.10120709823603
639,639,7.34345920749149,-3.31693535087471,0.946276541522159,1.08594586117305,-0.560096476798666,-0.138325662351427,1.05397567006742,0.972124719968132,-1.38416171591498
640,640,7.35473992725807,-3.32346541069905,0.945017905805805,1.09774111645925,-0.569822410969063,-0.150232491472003,1.33449641226034,1.40723699990299,-1.29788268613175
641,641,7.36683790414236,-3.33031438252252,0.943345570072541,1.1174954583464,-0.578849187379963,-0.169656305743875,1.07364624136391,1.52431778809825,-1.63583395570585
642,642,7.37956572349152,-3.33749857715321,0.941297834251555,1.1460889249899,-0.592589418000868,-0.194176494139966,0.343756767373452,1.35797816178034,-1.975051809962
643,643,7.39259556489361,-3.34485454220671,0.93903261585029,1.18000495485042,-0.612054940799195,-0.217335876499758,-0.0214772167378591,0.995464542976301,-2.06463715299629
644,644,7.4056036330052,-3.35221969094596,0.936694881103195,1.21265101293465,-0.628662520697167,-0.235081916705102,0.479815434427898,0.518765405783244,-2.03195376229625
645,645,7.41826967034141,-3.35943266249414,0.934420010901661,1.23633475810911,-0.635359166838295,-0.245096543674924,0.837803695589747,-0.595349060036089,-1.22088008719415
646,646,7.43053441513627,-3.3665372362248,0.932132911395329,1.25202325323496,-0.615336832202431,-0.245486092415826,1.68134658966528,-2.36969115255331,0.219551460202294
647,647,7.44261696051033,-3.37364560527945,0.929726013885678,1.26976327800296,-0.570634812495008,-0.237021627549056,2.33954894717932,-3.21943359334989,1.60066868208515
648,648,7.45461469694166,-3.38069818665259,0.927286795312492,1.29540294599727,-0.542801781958009,-0.216974419747171,2.59426209893603,-2.89392862661578,2.31395613529363
649,649,7.46662502283314,-3.38763274153609,0.924905305529116,1.30803091136383,-0.556661298457965,-0.188969804447997,3.89782995735205,-1.86223210234975,1.19554607012394
650,650,7.47874671533119,-3.39438443496678,0.922671489017014,1.30967536632015,-0.57265795977881,-0.159887282534338,4.113124224624,-1.45267835244722,0.929549524580222
651,651,7.49090586329953,-3.40113307053699,0.920375891215304,1.3091620422686,-0.569404284252966,-0.12374577488762,4.0900218754778,-2.04869390133021,2.5370359796872
652,652,7.50303860213547,-3.40791701640479,0.917961339511393,1.30605503619779,-0.561075557246344,-0.0716472314655799,3.27521974227233,-1.57284257041913,1.98057800918823
653,653,7.51525879084905,-3.41445888180877,0.91574381130223,1.31235383503282,-0.549493224704876,-0.0142704425952899,1.09966989315771,-1.88451541615378,3.69900313428929
654,654,7.52767886815945,-3.42048415289323,0.914037320498106,1.29616446576475,-0.524659251247541,0.0249684607538402,0.9696765983173,-1.58251847798814,6.21044426266834
655,655,7.54041044882925,-3.42572253401844,0.913154769353663,1.26713823184287,-0.510512721459369,0.046358142483586,1.63742376564169,3.72060048967902,4.14791674709202
656,656,7.55362278927556,-3.42976052170567,0.913332320707942,1.27453088805408,-0.512063617065564,0.0584235010249622,-0.269011892069688,1.70874124857886,1.40449741997066
657,657,7.56724471798716,-3.43278599944498,0.914368293661616,1.29192130967997,-0.501681652310171,0.0592050748273508,-1.08251203856995,-1.96530712279013,1.93831360918532
658,658,7.58102519192025,-3.43543259987358,0.915916980879115,1.35224910883836,-0.46444571762126,0.0368930627360614,-0.0326674728277889,-1.61821849576651,0.480320977085742
659,659,7.59470829355996,-3.43832927414465,0.917627913508893,1.39972740672477,-0.410262876193099,0.00711765593661967,-1.49324576843721,-0.619903848260661,0.365333297866459
660,660,7.60803287014948,-3.44209851287558,0.919145413514599,1.38269231512556,-0.404817103747629,-0.00526200823258418,-2.7749923608545,1.53976986679892,-2.02173474271152
661,661,7.62100403927432,-3.44696736051786,0.920518736761125,1.33688598856901,-0.368818769736018,-0.0110558612867033,-2.88262054771372,1.58149437156417,-0.845790905407111
662,662,7.63379113098545,-3.45251830657815,0.921992398605805,1.28439009131608,-0.328799758823102,-0.0124621030357787,-4.31236320409776,1.43032043504812,0.0171094219027036
663,663,7.64637835770979,-3.45840094278333,0.923497289317381,1.22517142266075,-0.309680412143191,-0.010368054313031,-3.82093694838572,1.96724676960375,-0.0767192530176937
664,664,7.65875153538805,-3.46426452668569,0.924958712526804,1.16225317083994,-0.314429270722372,0.00103990043900221,-1.98402448210456,1.23446189460796,1.47249020703047
665,665,7.67089705297684,-3.46975848107027,0.926296132410355,1.12885411138848,-0.321068446531414,0.0236529724059323,-3.45975898562003,-0.501990087194236,3.08446874711819
666,666,7.68264924811034,-3.47457686413957,0.927457471076611,1.12667393216929,-0.354309476320459,0.0634010108450814,-5.11750174374688,-0.720239021692175,3.78791551249979
667,667,7.69401645386655,-3.47894850941015,0.928497954865092,1.14184157549616,-0.416867421248551,0.120745058258013,-4.7813767708896,-0.126868388734983,4.41886714252128
668,668,7.705246070774,-3.48332649296708,0.929493728771516,1.16498700651133,-0.497170508843516,0.183422468916924,-3.28665695984099,0.625148303328897,4.55448628647523
669,669,7.71658621061035,-3.48816457045096,0.930518900228063,1.18394924030184,-0.570302632486436,0.237274791517431,-1.41465036224392,0.976267329546142,3.95074903090025
670,670,7.72828598190566,-3.49391706315891,0.931644560071809,1.19695372102606,-0.610933116931624,0.268844923111297,-0.19086217298168,0.582483932218231,3.01600084058495
671,671,7.74052980220981,-3.50093897805181,0.932976852880861,1.21231618288288,-0.622437283097522,0.274717675425007,-0.404324999599674,0.742158047427071,0.798054992015784
672,672,7.75315399095252,-3.50892600604406,0.934468192282283,1.22732413762413,-0.618628675325712,0.264797151004053,-0.13575940202879,1.85940051670049,-0.484796347450347
673,673,7.76588581288849,-3.51734572748811,0.935956432188948,1.23845631129997,-0.60786983065614,0.244475050635555,0.305160905901598,2.49264092904805,-1.11354389096973
674,674,7.77845203488809,-3.52566736015373,0.93727980773175,1.24683300125711,-0.596344283733415,0.218460605328035,0.372460896035268,2.56237626416799,-1.73692243453515
675,675,7.79057877917784,-3.53336137566136,0.938277257328167,1.24974552956225,-0.587952275097394,0.191471856047857,0.49834349537374,2.54196397450361,-2.3538320344868
676,676,7.80225384957615,-3.5404334316941,0.938948315671481,1.24445524420082,-0.581687021052205,0.160933870857938,0.611397922927653,2.31732592497624,-2.93422312650707
677,677,7.81366291428719,-3.54723923724809,0.939403433624495,1.23139689821279,-0.57275926831061,0.124123943001318,0.767630916565982,2.29312757951429,-3.17928517791244
678,678,7.82482732821635,-3.55377577156628,0.939647322281371,1.21431214823809,-0.561579033675296,0.0843096036704548,0.725032477958195,1.95439458527083,-3.40425836528936
679,679,7.83576726970916,-3.56004086316794,0.939683082978716,1.19684332931348,-0.546718262101809,0.0452133521197008,0.467272588649273,1.41813620837688,-3.49645678915664
680,680,7.84650185651232,-3.5660331237652,0.939511970904389,1.18155593667198,-0.529133938679774,0.0106126189533798,0.289307307647929,0.957895614993653,-3.48672672902152
681,681,7.8568730340072,-3.5716567216397,0.939104879373084,1.16468944093197,-0.508710694196785,-0.0199243281473216,0.251029455333162,0.673949665046851,-3.40400921946733
682,682,7.86686688409193,-3.57691693978768,0.938463472340382,1.14315160897292,-0.486901035193952,-0.0493280674665445,0.355116337883579,0.382484576102968,-3.12609336587162
683,683,7.87671920852408,-3.58196258683635,0.937632140471405,1.12113506864142,-0.469003322543342,-0.077127336266103,0.275169574570426,0.428997526577424,-2.83894505439239
684,684,7.88666737269851,-3.58694002954782,0.936653420726836,1.10424074025191,-0.455084338112129,-0.102870473995403,0.0798122228496376,0.327867299146856,-2.335225046492
685,685,7.89695013202726,-3.59199385265274,0.935568479055073,1.09738470271627,-0.448673711320342,-0.125996437503634,0.194729160856776,0.802203777529199,-1.6603761700881
686,686,7.90753130109123,-3.59707231281372,0.934362144418811,1.10521212408634,-0.44808371850733,-0.144852373715892,-0.194806364843637,0.0503220423108189,-1.27467794667218
687,687,7.91825174029726,-3.60207840598858,0.933011340943617,1.12323451815744,-0.455631941623758,-0.160268490500012,0.0195259305659715,-0.448427690189979,-0.882919264864656
688,688,7.92916643980918,-3.6070866381524,0.931540133114385,1.14603252531547,-0.469271641435101,-0.175448544955011,0.586908161606567,-0.549538118919798,-1.13709332371852
689,689,7.94033103118317,-3.61216958590109,0.929965730005361,1.16341664945931,-0.478654914195377,-0.192642982398608,0.57597508418659,-1.25152433922189,-1.50312782018219
690,690,7.95180269432606,-3.61739824570262,0.928298595557635,1.17447823232281,-0.481354946080042,-0.213795274924279,0.207545788223645,-1.15084640067051,-2.0783697357199
691,691,7.96371171486992,-3.62285105339115,0.926405616683603,1.18186048082788,-0.478671190947403,-0.241685196058666,0.142095639197544,-0.762959742839528,-2.52265142239455
692,692,7.97601957541043,-3.62847725163089,0.924273726790904,1.18992373171745,-0.472160121788555,-0.273142439332951,0.131306769999696,-0.556498629604347,-2.64086219885044
693,693,7.98853182850571,-3.6341542348315,0.922086110018541,1.19971052583878,-0.460622492494584,-0.301488520012987,-0.1124379574835,-0.79091525644035,-2.86624208326364
694,694,8.00105521977606,-3.63976060572265,0.920021672026823,1.20349381231194,-0.456135092033496,-0.320490431316949,1.15843075805906,0.473714418924683,-2.40910965883993
695,695,8.01339823123985,-3.6451758683406,0.918255706045087,1.2002033998433,-0.463526559446291,-0.325009065336118,2.53314042861582,1.03445411026152,-1.37602905836418
696,696,8.02543432599914,-3.6502915793996,0.91675208390924,1.18496244346048,-0.480150951932957,-0.311371939318584,3.39641685958192,0.200325826583801,-0.189054929149109
697,697,8.03729365116994,-3.6551891678922,0.915385453758837,1.16186229744463,-0.499154284096371,-0.282063877762627,3.88204953230744,0.14808727367773,1.0173901712335
698,698,8.04917098705187,-3.66003348602993,0.914194778958235,1.14201962481873,-0.507902954063291,-0.244663730875214,2.83332116156697,0.481470371492178,1.05094996894264
699,699,8.0612610068142,-3.66498936172075,0.913218593592462,1.13280381334025,-0.512230239739626,-0.202522423861863,3.19190879981656,-0.453547166451324,1.92842590781407
700,700,8.07375783245986,-3.67022144344267,0.912495934975172,1.14476714905106,-0.529502383350018,-0.162805332536757,3.20322257643241,-0.598828582114036,2.71610461615208
701,701,8.0866701812007,-3.6756982708192,0.911973661052646,1.18516470774841,-0.545257260714135,-0.130524233090939,3.02705899749199,-1.22586035697243,2.86574479198747
702,702,8.0998680285452,-3.68131143648161,0.911628724151686,1.24710288291617,-0.551190835124122,-0.10539481058233,2.84973037305297,-1.93431680468488,2.83611224105829
703,703,8.11333624399808,-3.68710897018677,0.91154586980577,1.30740760386607,-0.552235686465874,-0.0812984332937145,2.97699180503865,-1.56061268049573,1.53135170195148
704,704,8.12706076903062,-3.69313780395797,0.911806433484692,1.363635053048,-0.553438153977688,-0.0539859871338624,1.86130639730314,-0.468870412431842,1.12491199093392
705,705,8.14102956787452,-3.69944352051018,0.912487107305948,1.39796568525364,-0.571023828436526,-0.0248059442210739,0.81741642909423,1.05225780339544,2.59865505984097
706,706,8.15572682481859,-3.70616078765186,0.913842596694916,1.37715289578457,-0.578999485013141,0.00421371844768175,1.91555630338651,-0.490360987239806,4.87008863474035
707,707,8.17116257560365,-3.71325385735775,0.915829016869748,1.34038874423077,-0.563265834398798,0.0348007152928424,-0.384068575264614,0.269365158880285,0.816649547614573
