,Frame,CoM pos x,CoM pos y,CoM pos z,CoM vel x,CoM vel y,CoM vel z,CoM acc x,CoM acc y,CoM acc z
0,0,0.0727079335510237,0.0685566359879778,0.951105990212275,0.00373013038130069,-0.00542210766568974,-0.0109705725235819,-0.0535118474238759,-0.0249643038050261,0.017872249288661
1,1,0.0726832292731898,0.0683509669580187,0.951198258288783,-0.00022117537321141,-0.0053185245499659,-0.0107006580525413,-0.0776494883922295,-0.0530712188339368,0.0478519563209305
2,2,0.0726559125478106,0.0681411437082697,0.951296018326028,-0.00293659087531048,-0.00522970759544411,-0.0103323643809005,-0.102320809882728,0.00863677688126338,0.0106121250567441
3,3,0.0726298875975463,0.0679334056196265,0.951391055447302,-0.00587411304109267,-0.00514504087333312,-0.00998105889697652,-0.0957984187064358,0.000874272849215014,0.0598085066273242
4,4,0.0726090613746544,0.0677339909947744,0.951475153430728,-0.00765446979042629,-0.00507533959433145,-0.00965736022093764,-0.0998522214839623,0.0141554087197097,0.0448199956371837
5,5,0.0725973431911893,0.0675491370380571,0.951540094632506,-0.00852372565889901,-0.00496684830453734,-0.00938735468911938,-0.112705651439387,0.0201605264577682,0.039735228486064
6,6,0.0725951508226052,0.0673774022328838,0.951582168700638,-0.008510961590036,-0.00499254142820364,-0.00916093789397609,-0.0706211783085491,0.000166700798650986,0.0294311261298502
7,7,0.0725998829023168,0.0672146255543644,0.951606851511529,-0.00783205637194508,-0.0054174300777295,-0.00897093786240828,-0.0973062157404279,0.0325025773315838,0.0594478685189708
8,8,0.0726109199075689,0.0670629647797922,0.951619702441832,-0.00636791564123322,-0.00518567122859191,-0.00883081657926837,-0.0676361600081305,0.0312034069719722,0.0384379826879819
9,9,0.0726276408695367,0.066924578797792,0.951626279983578,-0.00503675740676237,-0.00516254901559253,-0.00870523484855938,-0.0379021838102152,0.0416180740954205,0.0331941359461156
10,10,0.0726494239099766,0.0668016276767794,0.951632142710067,-0.0036731734947417,-0.00446753961021566,-0.00860556141834188,-0.0937550195336656,0.0787736967615355,0.0337837036360339
11,11,0.0726732486353322,0.0666958755773252,0.951636143128336,-0.00267486607664483,-0.00338322252488101,-0.00856641188052542,-0.0290154307670478,0.0606076221585736,6.14953520470203e-05
12,12,0.0726995304885991,0.0666058821659858,0.951634573542341,-0.00225702815757967,-0.00204711299195791,-0.00859167266752914,0.0148152361639076,0.126205950259101,0.0442224316067982
13,13,0.0727328005488268,0.066529001890637,0.951629153666513,-0.00135388662353138,-0.00024815609273134,-0.00861961195774798,-0.0222669668733234,0.146204602300039,-0.0172575129076278
14,14,0.0727775895475968,0.066462589535833,0.951621603822661,-0.000659142815496267,0.00152309618027125,-0.00858746976221656,0.0424911771325294,0.184485825192624,0.0357804297302988
15,15,0.0728384280703159,0.0664040000745462,0.951613644554964,-0.000242999429140637,0.00280548901944793,-0.00842862933036173,0.0982506878788897,0.252945908808134,0.050545672928281
16,16,0.0729216673250176,0.0663519569017272,0.951604358342293,0.000487237548232375,0.00375347623896873,-0.00804213290059419,0.0635398882161702,0.253600456084708,0.0875377666334886
17,17,0.0730242904409429,0.0663082235203449,0.951592605164088,0.00170741751961777,0.00519203498533162,-0.00746231796111966,0.035845777128207,0.257520925816724,0.0683812539413907
18,18,0.0731367738030274,0.0662747150481352,0.95157976763624,0.00311253631346312,0.00752966474573375,-0.0068633145966824,0.0456217142352052,0.196651295800389,0.0753673810758293
19,19,0.0732495898159287,0.0662533468038629,0.951567221438111,0.00421056461036232,0.00941490147919909,-0.00638777980804639,0.0603731186764206,0.17670639779727,0.0358121050760734
20,20,0.0733532063314376,0.0662460341712782,0.9515563356423,0.00476521207714503,0.0106744867222851,-0.00619800748029236,0.043518371218785,0.228846713257691,0.0484035772625998
21,21,0.0734560819261677,0.0662411187077693,0.951547091494466,0.0052969516253053,0.0117742438560459,-0.00636847436920769,0.0629676136297529,0.187129741942887,-0.0233941767854689
22,22,0.0735645656350867,0.0662373210782886,0.951538569095608,0.00488964559417263,0.0124658479209169,-0.00676247717271959,0.0847181260922925,0.18846554370704,-0.00314249265686558
23,23,0.0736659577280964,0.066252127667748,0.951530786010213,0.00467284145887407,0.0133999225391822,-0.00731294466004,0.0269812134643709,0.165960917696865,-0.0376120400871163
24,24,0.0737475588483585,0.0663030275163456,0.951523764832106,0.00466065894216715,0.0145499118626766,-0.00789555384320171,0.00201053227700365,0.122858246757262,-0.0502460760492699
25,25,0.0737966692940906,0.0664075099724553,0.951517533253367,0.00441467184838555,0.0160970554051651,-0.00839890491226212,0.00821961189153374,0.10801112094879,-0.0764983251905478
26,26,0.073816913720576,0.0665784136889964,0.951512517311258,0.00416935698628988,0.0179605579158253,-0.00885509431118108,-0.0346951282473112,0.11272905936879,-0.0947701798263099
27,27,0.0738167438772092,0.0668040688358355,0.951508710712764,0.00250390662352274,0.0197154116486723,-0.00930705304860499,0.0778290832358203,0.144212400441118,-0.0731469987444679
28,28,0.0737907056305314,0.0670652036257857,0.951505495949784,0.000936650273570745,0.0221270696783618,-0.00976801665804742,0.0663028385657218,0.0986169357935778,-0.0840411101812053
29,29,0.0737333556284578,0.0673425544994073,0.951502254339551,-0.000740385874391578,0.0245340044900216,-0.0101961331754798,0.0827666798500544,0.120727591919182,-0.086654187206996
30,30,0.0736392627101231,0.0676168696724116,0.951498364868833,-0.00249733265637221,0.0265928738626621,-0.0105732279529239,0.101345990543217,0.0970135473572774,-0.044725329124518
31,31,0.0734887263324944,0.0678908202283759,0.951493462761115,-0.00455676754179935,0.0277135664909405,-0.0110004771005529,0.123012574720194,0.137083346684304,-0.0576584182014881
32,32,0.073285379381044,0.0681772503500054,0.951487973833302,-0.00616992248848632,0.0285639123399103,-0.0115008708308943,0.0534103083372755,0.110252602227413,-0.102818625972021
33,33,0.0730587985981856,0.0684721748145194,0.951482456635284,-0.00778436656106478,0.0294415563489863,-0.0118812983620949,0.0923933397023837,0.0639265733125158,-0.108227546096121
34,34,0.0728385572462998,0.0687716026831206,0.951477467012627,-0.00926889161121073,0.0297722381911078,-0.0119749831827539,0.0638376603817371,0.0980231111622001,-0.11000801036169
35,35,0.072654224393548,0.0690715367929601,0.951473558367149,-0.0100050265409156,0.031083225571268,-0.0116008398478242,0.0282796493606095,0.00271040777417489,-0.0222310115478245
36,36,0.0724804535853082,0.0693747203829014,0.951469756517584,-0.00981115284086372,0.0316168930179399,-0.0105367011249286,-0.00287862787151277,0.0198414613510392,0.0441482322348649
37,37,0.0722975376225642,0.0696838214785017,0.951465700179106,-0.00943852450306104,0.031892407872984,-0.00886287099940639,-0.0356636826965375,-0.00846199169893918,0.0662364114558701
38,38,0.0721435000287093,0.0699947222359519,0.951462851266363,-0.00855475735683129,0.0318620346069042,-0.00693455567517556,-0.0253889982094278,-0.00915237930283515,0.117570632742744
39,39,0.0720563624934429,0.0703032990329622,0.951462658869679,-0.00714275044550916,0.0314446274065309,-0.00507469215842542,0.000192885108366011,-0.0294826463934961,0.178171822682624
40,40,0.0720741451720839,0.070605421268799,0.951466557385968,-0.0048012146484095,0.0310847468011256,-0.00363521255705056,0.0171478636213959,-0.0483235769667872,0.182879757134963
41,41,0.072218791188082,0.0709030846967661,0.951476141345772,-0.00142493501379944,0.0302749474256497,-0.00258107845533426,0.0602346087590166,-0.0138575864601987,0.177125688623618
42,42,0.0724649550961081,0.0711990301851049,0.951490416820469,0.00309468545141912,0.0293733765408471,-0.00171021088636276,0.0548417037476557,0.0359616081323221,0.14354727552862
43,43,0.0727797213112371,0.0714902397107478,0.951506929978355,0.00797404145158221,0.0286103820421373,-0.00107993787960843,0.0612409215862924,0.0409104439037517,0.0397496635517628
44,44,0.0731301714642729,0.0717736964735142,0.951523243546504,0.0123095289694159,0.0277687011737742,-0.000764648633484979,0.122704087016077,0.0750330532345005,0.0400659765500003
45,45,0.0734833843015261,0.0720463870179148,0.951536942838019,0.0157543462038298,0.0271132207693006,-0.000776204786032312,0.102428926034555,0.111101607161358,0.014592093801227
46,46,0.0738495273602402,0.072311100080268,0.951548161971821,0.0185598801267851,0.0264846279656353,-0.00126385161365408,0.105889078675166,0.205722350252902,0.0166928312136989
47,47,0.0742505403391998,0.0725698373981315,0.951558522677126,0.0205051285813555,0.0265029904440484,-0.00219009625953734,0.129483969964708,0.1843081563049,-0.00409797074375111
48,48,0.074671160538884,0.0728184140393374,0.951567860352829,0.0223368791359351,0.0266306841781615,-0.00333394173886607,0.0661457744689526,0.157328697601274,-0.041640183512565
49,49,0.0750961291806964,0.0730526499125726,0.951576007546321,0.0243393911702192,0.0262852118564672,-0.00445855474457176,0.0355686440001693,0.08852351232021,-0.112514419052704
50,50,0.075510191900181,0.0732683689615158,0.95158279041392,0.026142387027812,0.0260803559590876,-0.00533662544339671,0.0183059501001161,-0.028664309134807,-0.131238376451611
51,51,0.0759201651841648,0.0734650560791239,0.951578083439495,0.0282805029809005,0.0248976949449988,-0.00598448629279995,0.00150536077346863,5.04127209141448e-05,-0.160148554613861
52,52,0.0763362215639956,0.0736455094982661,0.951562029532145,0.029623836695442,0.0226809213353312,-0.00654745340951084,0.0439598049549062,-0.0243277438341181,-0.0869793549778991
53,53,0.0767481443163822,0.0738105238251925,0.951549840697524,0.0309835833348088,0.0203794187440939,-0.00699927319589209,0.00317640597033568,-0.0854193435314336,-0.0819166842016555
54,54,0.077145716070843,0.0739608892332373,0.951556711865557,0.0318711263412255,0.0181040084383203,-0.00734797227295067,-0.00280255468291646,-0.136164984758723,0.0078787236639379
55,55,0.0775187180831248,0.0740973903369976,0.951597820621004,0.032448955438302,0.0158572210546185,-0.00755276127286558,-0.030413700072882,-0.157521171088806,0.0158475951781207
56,56,0.0778651795898349,0.074210753266754,0.951690294028741,0.032860538070906,0.0139633478998676,-0.00753791379203169,-0.027247028302668,-0.128887230352378,0.0130931567355926
57,57,0.0781919150892256,0.0743004590231808,0.951824000895188,0.0323840049326012,0.0124125768734053,-0.00730869769358857,-0.0697358915226208,-0.146546185769987,0.0167003692372891
58,58,0.0785018817377844,0.0743804191050522,0.951973221236622,0.0312752116262477,0.0107177313640421,-0.00698190348252539,-0.0312613796090903,-0.1284374833051,-0.0225576443235932
59,59,0.07879803617393,0.07446454367638,0.952112236915123,0.0296801772749498,0.00941337026718656,-0.00669781345067677,0.00462344692129125,-0.129526732906511,-0.0431972966924857
60,60,0.079083334820416,0.0745667421537157,0.952215331714463,0.028476559769341,0.00787025894623237,-0.00656265653212764,-0.0122856588148562,-0.104990166162825,-0.0677896782936806
61,61,0.0793568623017582,0.0746911499430635,0.952277017521653,0.0273550413892568,0.00724232699124778,-0.0066350024152762,-0.0490505412411747,-0.164656397764963,-0.0490129781920376
62,62,0.0796166465929072,0.0748284935038999,0.952314432988833,0.0263257107894082,0.00701783556700467,-0.00681589885963518,-0.0269493840049264,-0.14392844363926,-0.0403043901016155
63,63,0.0798640594164777,0.074972570258162,0.952335804014265,0.0255235495436707,0.00699051424074987,-0.00705231071019565,-0.0633051035588658,-0.141371175168905,-0.0573059220228219
64,64,0.080100473102,0.0751171792716385,0.952349356401398,0.0246444928755744,0.00686407069516659,-0.00730763140677292,-0.0770990527863242,-0.128351139598999,-0.0526479873227263
65,65,0.0803272605763607,0.0752561209275681,0.952363315506076,0.0237889673613745,0.00682988589496399,-0.00754192389171601,-0.0936642535875247,-0.131014908408736,-0.0939148614607172
66,66,0.0805494077815754,0.075396855637037,0.952376578214937,0.0226066839060807,0.00650973099271437,-0.00779720379509697,-0.0946996421787558,-0.0997258922342708,-0.120672472333617
67,67,0.0807659997614781,0.0755435197475625,0.952383656935402,0.021392871223175,0.00683302677337965,-0.00812075020367811,-0.0760025523655165,-0.128799288386045,-0.0945185539473824
68,68,0.080969558948485,0.0756849286160129,0.952386200906042,0.0199699153086951,0.00717559494516742,-0.00845031695488047,-0.0537606931812078,-0.105770713430287,-0.0506137203107387
69,69,0.0811526082369556,0.0758098980426197,0.952385860057998,0.0187647592668032,0.00720734559885447,-0.00871095588703396,-0.0493983481977177,-0.0780189196362075,-0.0618230074175273
70,70,0.0813076708157461,0.0759072441378651,0.95238428444798,0.0174818324838745,0.00706166549500269,-0.00881748266272861,-0.0703850564683219,-0.0821626242029289,-0.0292438798758432
71,71,0.0814278664701946,0.0759690656763236,0.952380579522541,0.0159737662533347,0.00633091585056929,-0.00877608395593566,-0.069862331366071,-0.0425120443220543,-0.0363650656550924
72,72,0.0815181803676456,0.076002822398442,0.95237363995323,0.0145877476704314,0.00516918403115141,-0.0086316361214163,-0.0708080391414713,-0.0558982313946853,-0.0211399771394665
73,73,0.081588933677213,0.0760203700139334,0.952364800746815,0.0131184409989444,0.00409877753779823,-0.00839680756400746,-0.0491744135349527,-0.0607362722374018,-0.0422107501609621
74,74,0.0816504475995719,0.0760335619951404,0.952355400189807,0.0120406291527781,0.0029893785639154,-0.0080648137279604,-0.131836715691759,-0.0518426578737177,-0.0291185884020605
75,75,0.081713043508348,0.0760542499479172,0.952346780269723,0.0108711558022345,0.00233674205925353,-0.00763966498378289,-0.110490596659496,-0.0635905814662007,0.00309902414585103
76,76,0.0817746705283473,0.0760847666815173,0.952338286499955,0.00975336601146835,0.00183456985583298,-0.0070800307238045,-0.161919636119857,-0.0804774355574812,-0.00268137962047157
77,77,0.0818284479348015,0.0761172095495122,0.952329024526397,0.00871382453528676,0.00140323638674165,-0.00637650444488326,-0.201186423468386,-0.0867206324065687,0.0277287466873322
78,78,0.0818774523252258,0.0761480743505898,0.95231997943721,0.00753456159966396,0.00084354406475662,-0.00558546245370375,-0.204598391441518,-0.0615978049132184,0.0609518356192726
79,79,0.0819247600283027,0.0761738552036002,0.95231213691993,0.00653564153319282,0.000406436711577451,-0.00478624227605935,-0.219116090671098,-0.0822627418454105,0.0722289218713555
80,80,0.081973447154054,0.0761910451173609,0.952306482918326,0.00577109661397681,-3.76033832003939e-05,-0.0040187754207893,-0.229610568031654,-0.0985440776932601,0.0526222056620324
81,81,0.0820256315770833,0.0762013866712048,0.952303403770313,0.00488157645253714,-0.000565564081129765,-0.00324153166663241,-0.223003379129501,-0.0814790515697837,0.0830957179448363
82,82,0.0820792622191809,0.0762072144683785,0.95230224207108,0.00397150343736584,-0.00131760551071307,-0.00238553561111206,-0.231495166086218,-0.102160283005991,0.065746493630546
83,83,0.0821311614273577,0.0762059099330105,0.952302417977097,0.00296400274085576,-0.00197932439361742,-0.00156887339165342,-0.18682290896273,-0.0757762878005455,0.0563974075914288
84,84,0.0821781513836028,0.0761948550405061,0.952303352086866,0.00170701877642872,-0.0030480761824428,-0.000919415114901912,-0.138587758613157,-0.0301263529255552,0.0841558126447875
85,85,0.0822170542781115,0.0761714318658023,0.952304465766722,0.000575229814490314,-0.00382729570800051,-0.000517445874727095,-0.142434075047724,-0.0256485318273755,0.042995399180289
86,86,0.0822470115614061,0.0761317693423436,0.952306117706151,-0.00039441814220347,-0.00435010927861395,-0.000485169518277967,-0.127913364985063,-0.0798449707748864,0.0196964898219683
87,87,0.0822701420201149,0.0760776135133396,0.952308692818821,-0.00141899052239378,-0.00497323859789585,-0.000729456302534792,-0.0868798996048457,-0.0261392217930051,0.00479126129466515
88,88,0.0822877338327421,0.0760147717835992,0.952311652711074,-0.00227050694600242,-0.00534603102168477,-0.00111121938008742,-0.135148934067232,-0.04772089537158,-0.0287507258021964
89,89,0.0823010745359979,0.0759490509731643,0.952314459614249,-0.00302612288291773,-0.0057104802432391,-0.00151239558793828,-0.101693571422728,-0.0547633393278907,-0.0471658039138144
90,90,0.0823114508505801,0.0758862571483552,0.952316576439762,-0.00383289803200671,-0.00593486000675126,-0.00180087586402644,-0.0653295829127738,-0.0639357478831429,-0.0359646731546782
91,91,0.0823165363569171,0.075830788895198,0.95231795762275,-0.00408599181925431,-0.00596753571029877,-0.00195169921084934,-0.0918195283782161,-0.0886981399694987,-0.0684233443574263
92,92,0.0823154728106603,0.0757787753571967,0.952318961527705,-0.00418777909277872,-0.00609720233876783,-0.00206851325409004,-0.0810063334905906,-0.0451347692561118,-0.0295529711330516
93,93,0.0823117487620066,0.0757236181175411,0.952319657466111,-0.00422862274883269,-0.00610310357322417,-0.00216567645410025,-0.0198880785842711,-0.0753682649806309,0.0118445387221207
94,94,0.0823088526829678,0.0756587190026061,0.952320114959395,-0.00410840146013951,-0.00635476385023761,-0.00225238587676376,-0.0320346920233663,-0.0664952449547707,0.0068634814359619
95,95,0.0823102728699417,0.0755774798851603,0.952320403824186,-0.00426250227016812,-0.00699817311999271,-0.0023400493396292,0.0100123575892373,-0.0608215071514377,0.00466832712486116
96,96,0.0823190587942855,0.0754788477003713,0.952320603751433,-0.00427016528060836,-0.00812498517541861,-0.00242671992720899,0.00329681239308009,-0.0571656084475346,-0.00391069890419338
97,97,0.0823328840303556,0.0753672208623792,0.952320669318069,-0.00423972942347301,-0.00916778602582492,-0.00250291557092897,0.0119301670171283,-0.0890827167878786,0.00390531170937597
98,98,0.0823471730277245,0.0752441783404531,0.952320482817897,-0.00398854790323799,-0.0107034191383883,-0.00259002203050951,-0.01704843774503,-0.0551329516324382,-0.0299897649210769
99,99,0.0823573505428907,0.0751112992508477,0.952319926258814,-0.00355747069190804,-0.0114198464479196,-0.00271401908917893,-0.047124764610349,-0.113709254925585,-0.0302742853577886
100,100,0.0823588417157662,0.0749701628059974,0.952318881305441,-0.00340337692075649,-0.012499169474935,-0.00287502371204107,0.00438424368929731,-0.0780987339625122,-0.0376810826733081
101,101,0.0823512584619724,0.0748182532161682,0.952317290932156,-0.00321342429880409,-0.0136601116194268,-0.00311995347558799,-0.0093313302295151,-0.0497371632726608,-0.0461833847843354
102,102,0.082337650670928,0.0746545164848555,0.952315234567548,-0.0033034977436354,-0.014436358365594,-0.0034318513766564,-0.0128262449705718,-0.0881202031878399,-0.064269281814999
103,103,0.0823186003045116,0.0744827241434642,0.95231279866832,-0.00327625327023723,-0.0151005940883914,-0.00376468398358922,0.00641091357648066,-0.0750053549508349,-0.0258305669610032
104,104,0.0822946885858476,0.0743066472730479,0.952310070097225,-0.00314218981530696,-0.0156574882356766,-0.00406445606138664,0.00623078697315148,-0.0871428230842332,-0.0469234799666807
105,105,0.0822664958852187,0.0741300565476424,0.952307136024721,-0.00317568706480453,-0.0161401419687275,-0.00427337015425907,0.00917591631394849,-0.0786568356558391,-0.0484113878710468
106,106,0.0822348790420128,0.073952932901524,0.952304285300886,-0.00319973940890523,-0.0161987027615311,-0.00439425665395989,0.006937574294189,-0.0912819646839591,-0.0312127316025767
107,107,0.0821994486213981,0.0737727593925834,0.952301461398466,-0.00357693241887682,-0.0163418790576094,-0.00443515475490614,0.0236362448721446,-0.088106075584989,-0.0260491127329635
108,108,0.0821589153064094,0.0735895589799334,0.952298233071962,-0.00366133519493779,-0.0168341369905438,-0.00443924930445875,0.0145446337059299,-0.0291652959967595,-0.044443258953852
109,109,0.0821119903441648,0.0734033537004586,0.952294168366244,-0.00392890330505262,-0.0170785711973659,-0.00442664392732817,0.0171381081670957,-0.0624458703675505,-0.0370833114469556
110,110,0.0820573856397887,0.0732141645961718,0.952288834532963,-0.00433926568935792,-0.0173974011690471,-0.00441119832258576,0.00972046978818242,-0.0505808137321575,-0.0203531751396873
111,111,0.081993285981289,0.073020878071075,0.952282445345861,-0.00440475987976757,-0.0177315032015311,-0.00442564908322588,0.0165707573113256,-0.0279362688838181,-0.0485399341226995
112,112,0.0819205487510415,0.0728234722279445,0.952275287870808,-0.00450825059268605,-0.0179028972736882,-0.00443264921980897,0.0199759192084191,-0.0512080417212626,-0.0399810938560644
113,113,0.0818418952872753,0.0726236062101252,0.952267039037835,-0.00454453823330186,-0.0180660671779231,-0.00440825476035527,0.00071275755365197,-0.0350011376226156,-0.0346348337030109
114,114,0.0817600468953171,0.0724229410973114,0.952257376525049,-0.00470532304967954,-0.0182969931813279,-0.00435239393301112,0.0180342565842204,-0.0452130446948998,-0.00755197876066912
115,115,0.0816777248375991,0.0722231400527125,0.95224597904521,-0.00512132298856858,-0.0184348331453178,-0.00421871922859215,-0.00865478396151286,-0.0275877648852355,0.000326900569573013
116,116,0.0815923488325138,0.0720214570552543,0.952233746482756,-0.00524991244521682,-0.0183774751861776,-0.0040493564247241,-0.0159895218835429,-0.0501115071156712,-0.00605194287342065
117,117,0.081502103466796,0.0718167771017524,0.952220893271423,-0.00584441401046707,-0.0186250812767426,-0.00383033864908254,-0.0156364444028031,0.0087571660707872,-0.0141191830332303
118,118,0.0814108568839988,0.0716132147051679,0.952206071386505,-0.00605828667659435,-0.0184184922568898,-0.0035603823425987,-0.0781147802263947,-0.0627843317246171,-0.00321572717062413
119,119,0.081322476681772,0.0714148890610197,0.952187933133863,-0.00617324849752738,-0.0183074966464885,-0.00323913891665307,-0.0424866051602932,-0.0202183938143575,0.0181633207939165
120,120,0.0812408298069212,0.0712259244152524,0.952165130967981,-0.00629671890758397,-0.0181716943083568,-0.00282986811271452,-0.0860644254701928,-0.022727543286727,0.0246983002404924
121,121,0.0811640330212465,0.0710491867628955,0.952144470494663,-0.00606863250233381,-0.0179236453628055,-0.00232266437628145,-0.0763056484446062,-0.0346532740133732,0.0192844576399398
122,122,0.0810895053166618,0.0708819322202634,0.952126851671608,-0.00550133005172397,-0.0175886461339941,-0.00173165399431944,-0.0476804240591432,-0.00973055477749389,0.0467946429599166
123,123,0.0810200661925981,0.070719875334873,0.952102068368645,-0.00509553410082095,-0.0170067087038945,-0.00108522158077791,-0.0434942729170732,-0.0418647796247149,0.0382698862887158
124,124,0.0809585348488994,0.0705587320599643,0.952059913948823,-0.00480750046773878,-0.0165592198703827,-0.000442915120964307,-0.0171045842412388,-0.0142283022960433,0.0635001620010194
125,125,0.0809077299948026,0.0703942194052719,0.951990181393263,-0.00466276950289617,-0.0161138696149341,0.000134262988902614,-0.00623360419000026,-0.0056697965777318,0.0883017984040598
126,126,0.0808663747558703,0.0702276297580326,0.951875305269432,-0.0045314341785357,-0.0160830663865748,0.000733348258245712,-0.0250506158892776,-0.00237389096693402,0.0735297110205093
127,127,0.0808325813386186,0.0700618285059576,0.951722091242768,-0.00446640895428349,-0.0162347984700383,0.00137839144861345,-0.0253782913519803,0.0300436525641932,0.0860320653785394
128,128,0.0808082561398659,0.0698948917079958,0.951556888452881,-0.00424689307683332,-0.0164322814544558,0.00198055974637686,-0.046436032404719,0.0322323731412938,0.0868886841592399
129,129,0.0807953120628727,0.0697248938517937,0.951406045239039,-0.00411576645299524,-0.016534561351242,0.00243395331082367,-0.0274666227477442,0.0545757385402069,0.0489561497320996
130,130,0.0807956686320281,0.0695499076650884,0.951295908870886,-0.00378022140993144,-0.0165851535716035,0.00264336569108288,-0.0218474350380352,0.059273767043758,0.0362636561746715
131,131,0.0808153239291674,0.0693684523434691,0.951234140575958,-0.00329509557632251,-0.0164434122130999,0.00254336834815145,-0.00798376423299485,-0.0488760879853541,-0.725736381568336
132,132,0.0808530056015206,0.0691818191611721,0.951203173131131,-0.00282777416341275,-0.0163199058698043,0.00216025532146559,-0.0169328697557857,0.0139430413780101,-1.09298172748756
133,133,0.0808997307342381,0.0689922345387971,0.951191510935208,-0.0023081632360971,-0.0160277367417514,0.00165032253062746,-0.00936620750559568,0.0308015943235618,-1.09006179813619
134,134,0.0809465145510348,0.0688019215011527,0.951187659901136,-0.00172638574463518,-0.0158498757636397,0.00111740516272896,-0.0103123435437651,0.0327626246377259,-0.776321927063632
135,135,0.0809843705641593,0.0686131000230531,0.951180127646185,-0.00124535756800976,-0.0157335687446255,0.000683601650346682,0.0127229456999837,0.0715883883362209,-0.0554702082145553
136,136,0.0810144752136934,0.0684253178692117,0.951170124748152,-0.000940871833777903,-0.0156655866430674,0.000346809632739703,0.0313604409813983,0.00734142148504145,-0.0243928218134766
137,137,0.081042820881005,0.0682370916491744,0.951165313442678,-0.000478509201801457,-0.0156467018449426,9.36786000474735e-06,0.0398775650688726,-0.0179897420698803,-0.0227294202369968
138,138,0.0810676438961913,0.0680490919322356,0.95116387984167,-0.00014619263810963,-0.0158507104228096,-0.000293786955913661,0.0247801364127687,0.0330342778937681,-0.0366681802425823
139,139,0.0810871809581886,0.0678619889266008,0.951164009763367,0.000181222129527521,-0.015797217752602,-0.000558973531207522,0.0545179785298878,-0.0187991296561081,-0.0130371074804572
140,140,0.0810996691441961,0.0676764525090472,0.951163888678684,0.000287538194508167,-0.015721018076264,-0.000770449665400067,0.0452670115451725,0.0221522616965629,0.00636246272393759
141,141,0.081103385440228,0.0674914424342673,0.951163736265492,8.62431394563876e-05,-0.0154862988120021,-0.00089619872885429,0.0168550881815046,0.0737396275311862,0.00300618512228896
142,142,0.0810995070442133,0.0673065070175465,0.951164761906421,-0.000113622571323662,-0.0149113351000886,-0.000966315793327228,0.00971261057690321,0.0343739526656199,0.00364810688751056
143,143,0.0810906218791073,0.0671232002073897,0.951166635077357,-0.000359097965583256,-0.0142442974218516,-0.000993650806823135,0.00888836806618208,0.0474925574254132,-0.00670884020719961
144,144,0.0810793181308301,0.0669430780578305,0.951169024958354,-0.00089041268553198,-0.0136305907487518,-0.000994370726033927,0.0108261667567113,0.0621269340009727,-0.0151160200751352
145,145,0.0810681842129437,0.0667676987298062,0.951171600534829,-0.00116252481838564,-0.0130359663463721,-0.000993890920029499,0.0242515272896271,0.0476883433729274,-0.0104002930109089
146,146,0.0810568165282911,0.0665981549212015,0.951174384300108,-0.00121325191411157,-0.0126594985771563,-0.00100155639141268,0.00488105419782836,0.0713544184632355,-0.0151852575340444
147,147,0.081043491857593,0.0664334077559193,0.95117759559399,-0.00129152777062781,-0.0121729728391295,-0.00102285677478272,0.0490061692531735,0.0568203490762322,-0.00537110779422027
148,148,0.0810288191367432,0.0662718203322822,0.951181198831414,-0.00131351552944245,-0.0118364732036073,-0.00101388800970995,-0.0154772409871577,0.0763154446944968,-0.030958098408589
149,149,0.0810134070582521,0.0661117567534118,0.951185158751383,-0.00147219480706505,-0.0115117018731917,-0.000966303303483692,-0.0147206851470987,0.0695477930335616,0.00985966445144857
150,150,0.0809978641579436,0.0659515819295447,0.951189440424304,-0.00148216627652061,-0.0112240531942004,-0.000893142874631427,-0.014670768561463,0.0729261033689454,0.0267423258355826
151,151,0.0809816367344803,0.0657918934062344,0.951194145029229,-0.00149898971643879,-0.0111459696023864,-0.000737014680772203,-0.0257016285794495,0.045101490436494,-0.00317478175392428
152,152,0.0809643209498436,0.0656337834863215,0.951199295502258,-0.00163623096185543,-0.0111256825613518,-0.000538709891575617,-0.0218099878746993,0.024401807063894,0.0191192998233146
153,153,0.0809467497976407,0.0654763592121965,0.951204739866557,-0.00175391110455168,-0.0110452892795883,-0.000306408462387759,-0.0330014437250578,0.0101153913689101,0.0337990431341959
154,154,0.0809297558938802,0.0653187271764585,0.951210326192341,-0.00202985133399037,-0.0114366196595333,-9.41496383595098e-05,0.0173922246241332,0.0384452898293248,0.0320983310501827
155,155,0.0809141714671719,0.0651599936921428,0.951215902582785,-0.00216288096060323,-0.0114196001913531,0.000103043261026612,-0.0194499234683506,0.00604472146243333,0.00805315102301061
156,156,0.0808977641262861,0.064999053070592,0.951221380047837,-0.0021947959184496,-0.0116185453607189,0.000230694712160524,0.0177552205782029,0.031975276182151,0.0182732902067281
157,157,0.080879980039278,0.0648365017616299,0.951226859736288,-0.00181638908915614,-0.0117002105488021,0.000324576354860976,-0.0188728017560315,0.0298422498471222,0.0159862112887531
158,158,0.0808641688910743,0.0646739991956596,0.951232475079608,-0.00170766630104845,-0.0121281317000396,0.000418858498597216,-0.00817063224767092,0.0455964658631471,-0.00700068193235029
159,159,0.0808536802998556,0.0645132047697695,0.951238359603391,-0.00139571174995799,-0.0123670241313074,0.000505926756679134,0.0131759303042231,0.0462823641423428,0.0277333717183472
160,160,0.0808518638302191,0.064355777772764,0.95124464689081,-0.0010241907047766,-0.0124519687882173,0.000618293031478805,-0.0160541814167271,0.0329580294784416,0.0249631689396451
161,161,0.080858503120219,0.064200938714739,0.951251659252112,-0.000650419970886742,-0.0124595118000469,0.000749147270321517,0.0221726323145986,0.0362787695847029,0.0754677726139882
162,162,0.080871366012498,0.0640475818202721,0.951259307829225,0.000255981589595199,-0.0122662157547338,0.000933061267099209,-0.0556287928743225,0.040943161255259,0.0113181375812947
163,163,0.0808907783527831,0.0638968768637779,0.951267109243856,0.000831951682144993,-0.0121709029523056,0.00109289764405955,0.0129948474392274,0.0269165284646308,0.0461201233958527
164,164,0.0809170659292873,0.0637499937904815,0.951274579896535,0.00160400163266463,-0.0121288266525187,0.00121483924371497,-0.0129428098969596,0.0735313820587716,-0.018052170492168
165,165,0.0809505543852793,0.0636081028802679,0.951281236086095,0.00203646821737465,-0.0118243561082319,0.00124056555080112,0.0498439031569296,0.0291352340465959,0.0118854905019223
166,166,0.0809939823528019,0.0634717443756136,0.951287128957283,0.00249846355827776,-0.0117001918509963,0.00115537903653842,0.0338574324681011,0.0698568562550535,0.00795285532580484
167,167,0.0810471332650413,0.0633401391736548,0.951292580954237,0.00286802501900946,-0.0113181514598525,0.000999051486785653,0.0328971707823535,0.0703353145608007,0.00781903441564514
168,168,0.0811058998376812,0.0632124788469063,0.951297515355401,0.00332310326136923,-0.0110339455553566,0.000788388515631962,0.0233416502434803,0.0502832604946091,0.00920530493955542
169,169,0.0811661748733713,0.0630879549353227,0.951301855331414,0.00384850154145322,-0.0107448102095229,0.000559665802573914,0.016606699533344,0.0889357750083036,0.0020215139272784
170,170,0.0812238513311407,0.06296575890742,0.951305523860642,0.00442819266447026,-0.0105026365753317,0.000340613772173822,-0.00841085553047518,0.0600008779877371,-0.0394873177361253
171,171,0.0812818298988575,0.0628456960414088,0.951308681039809,0.00461567138203002,-0.010302014929033,0.000131712384127497,0.0491244017199661,0.0636107170752954,0.00177522369816415
172,172,0.0813428488519314,0.0627283065844216,0.951311378408803,0.00504297544502349,-0.0100355078206253,-7.86786304821399e-05,-0.0165785954314717,0.0366606069944558,-0.0309383355737242
173,173,0.081402558167694,0.0626138847439242,0.951313375838773,0.00527851464105438,-0.00957206456653885,-0.000313107625008574,0.0371500729048937,0.00687257149624779,-0.00332770487939653
174,174,0.0814566085065795,0.0625027253213324,0.951314432968867,0.00528676583368216,-0.00938621373530498,-0.000531241956150296,0.0242535030258853,0.0330611124241798,-0.0275052120222178
175,175,0.0815006512760788,0.0623951239207409,0.951314309119277,0.00529200588410301,-0.00904415622512898,-0.000775427949179703,0.0445379608386567,0.0481669426963145,-0.0197242253595232
176,176,0.0815339268423032,0.0622897000575881,0.951312643528776,0.00520997136020513,-0.00886314658984611,-0.00108417582679636,0.0454756847382949,0.0310635032549738,-0.0228997285862932
177,177,0.081559336596863,0.0621862609504959,0.951309596022811,0.0051146216570455,-0.00882620523304004,-0.00145368794781822,0.0189453838704784,0.0583402098083657,-0.0149936805626305
178,178,0.0815780240522303,0.0620868842280453,0.951305706428066,0.00498878545522218,-0.00892554212913662,-0.00181030513256449,0.0178818656981672,0.0346566146164805,-0.0465275413983949
179,179,0.0815911327296433,0.0619936469274105,0.951301514549506,0.00487337931058835,-0.00896253000105594,-0.0020551165942414,0.0185056676432293,0.0742537899328979,-0.0407574750977276
180,180,0.0815998061025082,0.0619086252033303,0.951297560295194,0.00453852060776019,-0.00867655310285386,-0.00212098431406797,0.0322047500728044,0.027423324309471,-0.0204043697626585
181,181,0.0816037954595402,0.0618357271145628,0.951293568188379,0.00411246358798835,-0.00843223651839958,-0.00191574604411911,0.00315601773413637,0.0741203613782958,0.0237786401739757
182,182,0.0816023404615015,0.061773572886184,0.951289177371509,0.00356455500670372,-0.00793444506940337,-0.00151164855193871,-0.015230836045835,0.0443952350301596,0.0218461792012732
183,183,0.0815958176717957,0.0617163046357744,0.951284800227856,0.00318915904676834,-0.00753989024487517,-0.0010129897875601,-0.0467120117865087,0.0780996434543613,0.0428150190086423
184,184,0.0815846048892555,0.0616580624426032,0.951280849589558,0.00261330027518758,-0.007227918299689,-0.00050789521167748,-0.00849828745267276,0.0548690496474002,0.0405038333498067
185,185,0.0815690811731832,0.0615929839766181,0.951277738798219,0.00196524427955895,-0.00701722538024223,-7.2781458300072e-05,-0.0583510306034737,0.0538176488077294,0.0478682499949673
186,186,0.0815508971313756,0.0615208972031567,0.951275353947309,0.00099073944745594,-0.00731156661123026,0.000229438871942254,-0.0376658728137898,0.109753742291915,-0.720826606335875
187,187,0.0815298045024458,0.0614457093564584,0.951273420140722,0.000235572524304308,-0.00777910870508775,0.000497092245781515,-0.0724201540327871,0.0704195340187212,-1.06937927715321
188,188,0.0815033356328571,0.061367672523306,0.951272110131498,-0.000858603021418706,-0.00863423449648202,0.000751570688479755,-0.0614954594155305,0.042503624482693,-1.06725331143346
189,189,0.0814690240208974,0.0612870351690107,0.951271597264635,-0.00187192705576229,-0.00886212312334889,0.00102438552997881,-0.0538474563378492,-0.0292419634202536,-0.706673908521951
190,190,0.0814244043407127,0.0612040414071766,0.951272055560458,-0.00270961427953509,-0.0089223080052584,0.00136597682105281,-0.0708000852010036,-0.0868993718531817,0.0508554051241354
191,191,0.0813565906044817,0.0611124542033819,0.951272959523385,-0.00347014693292588,-0.00855320888653502,0.00181792939090715,-0.10735894484221,0.0364852757554727,0.05328689205615
192,192,0.0812672358563595,0.0610120933250774,0.951274197380975,-0.00422055122483078,-0.00798750827972029,0.00236209549939212,-0.139296296593764,0.0392190783042453,0.0427802313350834
193,193,0.0811756816364605,0.0609122869707572,0.951276562958514,-0.00553537867853622,-0.00786308542850665,0.00294380250957342,-0.086573142390567,0.0849222543122127,0.0867142033585908
194,194,0.0811012661049008,0.0608223663180908,0.951280847665991,-0.00672557528821173,-0.00816005880729946,0.00348794063523478,-0.0596405584483327,0.160069211518947,0.100069633328487
195,195,0.0810633233597617,0.0607516657418008,0.951287841128161,-0.0076129787622856,-0.0085740788336277,0.0039371599887036,0.00895154066321267,0.209381648197275,0.102571889177563
196,196,0.0810682005834807,0.060705044645566,0.951298560199042,-0.00732905989514633,-0.00821472828086563,0.00431748743050263,-0.0100244038983157,0.10439201190818,0.0913433696519485
197,197,0.0811030015836487,0.0606762606640611,0.951312482682894,-0.00601530287361703,-0.00754624934152392,0.00465866050553756,-0.00484041038001469,0.134058504369802,0.0814704378345637
198,198,0.0811581983800785,0.0606580037798344,0.951328088210082,-0.00415061694239095,-0.00663339748919893,0.00491494496415452,-0.0295898038957021,0.0916015197263948,0.0556759654492243
199,199,0.0812242718089066,0.0606429734181949,0.951343852673171,-0.00234066073792125,-0.00622188049541488,0.00501811769581835,-0.0134468835107107,0.0969732357981305,0.0307889343142411
200,200,0.0812917136986937,0.0606238788057162,0.951358247465805,-0.000921699616292818,-0.00615946689573283,0.00489309019969192,-0.0132775448245974,0.103684236317276,0.0178002637618472
201,201,0.0813628538175878,0.0606006152716592,0.951371833390301,0.000291970337831985,-0.00617946011802227,0.00444371708489772,0.0190444771300993,0.0270229108347003,-0.0142640064621748
202,202,0.0814440531598922,0.0605780324434231,0.951385627585304,0.00155611111776415,-0.00633391298320016,0.00374541088254806,-0.0223693768532123,0.0139325388874122,-0.0332798533031575
203,203,0.0815318614438249,0.0605562894246571,0.951398784233615,0.00211434932501717,-0.00720911428045497,0.00290120347514497,0.0465927440110341,-0.00963420520142974,-0.0332239899089613
204,204,0.0816228280729829,0.0605355639105702,0.951410458940998,0.0029624205513133,-0.00807983685378134,0.00205989450989779,-0.0115806560262425,0.0203674656553406,-0.0592199322416455
205,205,0.0817135014837952,0.060516054500722,0.951419808765261,0.00352847824765795,-0.00853157484714531,0.00129621850138869,0.00964456201863139,0.0121816239625958,-0.043455575920637
206,206,0.0818038933943031,0.0604981093330313,0.951426768618581,0.00437295464004377,-0.00903230652345519,0.000615927091635648,-0.0201574633992053,0.0122546933179749,-0.0623396166707503
207,207,0.0818963396887445,0.060481641570389,0.951431902521159,0.00497886051712928,-0.00943255290116865,-7.91692006361291e-05,0.0221650975950498,0.0535917449576467,-0.0488456659902552
208,208,0.0819908652864013,0.0604662083115644,0.951435312825724,0.00524566491855929,-0.00995509975447581,-0.000731240526683714,0.0754387262946854,0.0702631055467306,-0.0569969213091463
209,209,0.0820874827282452,0.0604513576705603,0.951437102552608,0.00559721872023113,-0.0103167443824798,-0.00128881799948569,0.080293560623672,0.0725216380752989,-0.0292542749737508
210,210,0.0821861912938097,0.060436627860084,0.95143737539194,0.00571332542463131,-0.010854746351284,-0.00168421250423329,0.108098822877773,0.099543663352313,-0.0321507954411118
211,211,0.0822832574146415,0.0604215650769379,0.95143555306039,0.00595998586931016,-0.0111518019966579,-0.00188158165831064,0.0358286414746864,0.0657280338173822,-0.0356982161593671
212,212,0.0823786890071334,0.0604065191156306,0.95143157153971,0.00604093463681347,-0.0117320962680328,-0.00192033182236981,0.0282445865779079,0.101391114606972,0.00135646798480952
213,213,0.0824780857539705,0.0603922066853558,0.951426305240392,0.00625964968614227,-0.0117735887814918,-0.0018677447485615,0.0090099896320069,0.0264573510006592,-0.00291380674090881
214,214,0.0825870447901358,0.0603793180701631,0.95142062700765,0.00626162022362734,-0.0124816389115352,-0.00174562803201483,-0.0145653051761913,0.0502493234088854,0.0181078186374989
215,215,0.0827111601021822,0.060368516000222,0.951415408012331,0.00677107604222888,-0.0129988766395861,-0.00162821363244135,-0.0290651156813809,0.00139532657927878,0.00833511805118195
216,216,0.0828547971389448,0.0603642057413831,0.951410509912821,0.00788824557932799,-0.013350777642942,-0.00148622384919901,-0.0397259323675581,0.00201630610136924,0.0276152213038787
217,217,0.0830142256246633,0.0603659148610472,0.951405353402359,0.00928858048430974,-0.0136392918954589,-0.00127151482928778,-0.00499826210597191,-0.0332926375472187,0.0167956368193356
218,218,0.0831828938324262,0.0603669735981359,0.951400146211065,0.0103219825487412,-0.0143965581830514,-0.00103293588881621,0.0569800175823,0.0100491346826127,0.0277250380157505
219,219,0.0833542513404218,0.0603607200551769,0.951395095300216,0.0112629061755064,-0.0153807272773012,-0.000800752919257816,0.0776269038968657,-0.00538568405661285,-0.00746111557824054
220,220,0.083521749329565,0.0603405008211945,0.951390406941407,0.0112741356503518,-0.0164147027206012,-0.000635184244179049,0.0928808968362584,0.00431155209417837,0.0343065846990909
221,221,0.083692292182665,0.0603022100477684,0.95138661959835,0.0111229919714788,-0.0175135520723172,-0.000529888161696659,0.107767982157117,0.0194009226619608,0.0488622141890574
222,222,0.08387024799564,0.0602502644978518,0.951383595205921,0.0112743225913972,-0.0184215798136459,-0.00045498713000071,0.0447228550689035,-0.0648690168113997,0.0304978976991185
223,223,0.0840452629152894,0.0601908115172092,0.951380525093244,0.0130103961623582,-0.0180629193446133,-0.000500480846907484,-0.0699206895581495,-0.0943217414976902,-9.825105933244e-05
224,224,0.0842069807443741,0.060130012206655,0.951376600927,0.0129548926356455,-0.0190602266260925,-0.000553721619489807,0.0136865196368017,-0.0160480785080383,-0.0506241425639979
225,225,0.0843450430542907,0.0600740414177711,0.951371014512973,0.0114114355506129,-0.0199282901946436,-0.000660124894939818,0.0509656200619207,-0.00177881099404356,-0.0187008901727171
226,226,0.0844602462863066,0.0600166276515759,0.951363606949743,0.00969568702260861,-0.020320233550214,-0.000974496116310082,0.025250140139766,0.0349697721492885,-0.0339492085970438
227,227,0.0845594955995487,0.0599536743765219,0.951354917700657,0.00819585605562454,-0.0196098102123384,-0.00146156596480622,-0.0310174646056232,0.0370447501355361,-0.0175234903038947
228,228,0.0846415880087496,0.0598946255901421,0.951345184731686,0.0065106880464963,-0.0188437750511589,-0.00199854590896967,-0.0392968602296188,0.0383676185601478,-0.0346260146740565
229,229,0.0847053129474325,0.0598489200684868,0.951334644276828,0.00500189070587375,-0.0181512271998058,-0.00243646632211519,-0.060884611362414,0.0647333608191904,-0.0634687661105132
230,230,0.0847494527426963,0.0598259912031077,0.95132353090546,0.00308868664933242,-0.0173613565032664,-0.00265035567612074,-0.0451875358089241,0.0512130152653286,-0.0493530995265349
231,231,0.0847643444146758,0.0598349064891501,0.951310629456727,0.00105743470816002,-0.0167304428201833,-0.00267797521244549,-0.0525105443237031,0.0531757403224071,-0.0158999260721177
232,232,0.0847507876076438,0.0598693983012415,0.951295777792584,-0.000845652473690003,-0.0159510691146597,-0.00260977194155291,-0.0816583956644094,0.0146518123287794,-0.00801822670914983
233,233,0.0847232439201512,0.0599158709693257,0.951280790501707,-0.0025624909234129,-0.0149203905728025,-0.00238877130129773,-0.112557044197323,0.0106786421542281,0.0171734639481046
234,234,0.0846961626193549,0.0599607005330494,0.951267485236192,-0.00393911431889385,-0.014023025736427,-0.00196935810647332,-0.126532963379955,-0.00760616508861332,0.0283896574234324
235,235,0.0846839813662174,0.0599902374182561,0.951257682322247,-0.00508339209670627,-0.0132517232467221,-0.00130625353556442,-0.0926502116515609,0.00967739358914704,0.0636709112343173
236,236,0.084680460417022,0.0600074926896631,0.951251130082671,-0.00554463109076758,-0.0128002411840689,-0.000244077496913612,-0.147505531994849,-0.0115142263919109,0.106228138575945
237,237,0.0846759360432731,0.0600215247175916,0.951246614194415,-0.00603513063193278,-0.0123993279419786,0.00120003985667634,-0.109736022018778,-0.0101394139434368,0.157235067811188
238,238,0.0846797026559076,0.0600277369880156,0.951244511573111,-0.00619881064276884,-0.0124314824046739,0.00278209123862422,-0.111724772163648,0.0383396458456464,0.147573760790533
239,239,0.0847010558412729,0.0600215320807889,0.951245198081386,-0.00614310667621094,-0.0123408632199056,0.00424146821283737,-0.103125353586824,0.0185279288596565,0.176983300590211
240,240,0.084749292201585,0.0599983117611703,0.951249047635827,-0.00562676843624787,-0.0124424311705299,0.00533650521680026,-0.121061946496161,0.0409545323960576,0.137027464492432
241,241,0.0848261198283594,0.0599538738944759,0.95125720405351,-0.004839762872433,-0.0125455986834805,0.00607394395385366,-0.0782733903806395,-0.0320189366235491,0.120187857710291
242,242,0.0849253084229916,0.0598912471622902,0.951269406485197,-0.00386979929430744,-0.0124685291516305,0.00661989518886678,-0.0997669171395032,-0.0356026973991513,0.133804821421548
243,243,0.0850442562889568,0.0598166937178913,0.951283921204384,-0.00301464435020279,-0.0128401137534584,0.00697606905233814,-0.0268911341972967,-0.0121875922192151,0.0952865996200148
244,244,0.0851803722901633,0.0597364926479938,0.951299018088605,-0.00235708371100972,-0.0130695902873629,0.00710460154059994,-0.03664850386602,-0.0284215501344552,0.0749184461974338
245,245,0.0853310747825205,0.05965693723352,0.951312972091231,-0.00153407924679062,-0.0133363929204816,0.00695077763445286,-0.0249113247211235,-0.0578406105278298,0.0360356282244794
246,246,0.0855072164237921,0.0595758976591379,0.951326370008782,-0.000588847493749922,-0.0131289024600514,0.00644124736239945,-0.0155306285366477,-0.0798766940716642,0.00379895582118441
247,247,0.0857105147120062,0.0594891863638386,0.951340352535039,0.000638735477152633,-0.0130319209504469,0.0055825975300845,-0.00979618500934477,-0.0520900413701305,-0.0141121278793899
248,248,0.0859246965558684,0.059400026306255,0.951354034729018,0.00185533864225403,-0.0126862577982734,0.00452135137839406,-0.01074969479047,-0.0733626389399278,-0.00361902632206264
249,249,0.086133494535424,0.0593116488380244,0.951366538591809,0.00300037482040486,-0.0127263701051915,0.00338335726098202,0.00170472121250233,-0.0743469537405357,-0.0621255608229199
250,250,0.0863206460871693,0.0592272925871777,0.951376992554586,0.00387964426865425,-0.0126840127844658,0.00231415047995935,0.0435815814008525,-0.100805165864177,-0.0746547051823245
251,251,0.0864923342727329,0.0591443356816568,0.951385428656266,0.00409689257186653,-0.0131115965404728,0.00127054597619642,0.0211060100154896,-0.100329132338486,-0.0752414624551227
252,252,0.0866594099058732,0.0590606413028898,0.951392433683398,0.00454392666787074,-0.0136256108372164,0.000121664119457608,0.0574566924875551,-0.11999096004464,-0.0675872218441932
253,253,0.0868126161203526,0.0589801814438264,0.951397973885473,0.00463232924083751,-0.0141816672726107,-0.00101954935976935,0.0356681022991228,-0.13507152811908,-0.0880513993076722
254,254,0.0869426969276128,0.0589069292717344,0.951402017177295,0.00446578375822603,-0.0144848843850945,-0.00206457468606167,0.0249833778287886,-0.184902998930023,-0.10050074546422
255,255,0.0870403969027052,0.0588448587492534,0.951404532058925,0.00407655460222059,-0.0146190539327096,-0.00293002827184004,0.0160217107451892,-0.159179393795695,-0.0998161877461555
256,256,0.0871035145695681,0.0587920186782586,0.951405027449666,0.00329139078103888,-0.0143865923064582,-0.00362592236163581,0.0150583490861237,-0.162201470973426,-0.0656210928281783
257,257,0.0871382280034293,0.0587457773052452,0.951403528175683,0.00238005299982137,-0.014027720393126,-0.00422003665398953,0.0044124410369401,-0.151628668818745,-0.105325930493842
258,258,0.0871478491294398,0.0587090835405395,0.951400774538663,0.00125340526998692,-0.0134915473616704,-0.00468792484776484,0.00883897843568703,-0.152242827433308,-0.0714886515203038
259,259,0.0871356873243723,0.0586848811520397,0.951397505745995,0.000229966122610918,-0.012883582120123,-0.00500060090892215,-0.0127018107860308,-0.107375705283655,-0.0489221934418304
260,260,0.0871050499840607,0.0586761098653859,0.951394461183539,-0.000979535794452882,-0.0122003012700995,-0.0050984782046595,-0.0739399010193673,-0.100981282031809,-0.060145304718545
261,261,0.0870530960344001,0.0586863471876194,0.951391399038259,-0.00246325921443213,-0.0112563512317141,-0.00494502019772709,-0.0421976824793023,-0.0854668471301882,0.00240688829165116
262,262,0.0869776181498755,0.0587136311080701,0.951387821299779,-0.00421091242096164,-0.0101750163528128,-0.00454625887764034,-0.102707208383538,-0.0781855203226152,0.00715680171570845
263,263,0.0868828724193724,0.0587525884646922,0.951384085375223,-0.00603616929260924,-0.00912477071718882,-0.00400093815637758,-0.0998461214018708,-0.0319757947674759,-0.00699091004046356
264,264,0.0867731148970334,0.0587978455668393,0.95138055150603,-0.00791786402861399,-0.0078207548794238,-0.00341696929968072,-0.133712766831313,-0.0582026441986465,0.0102171528819151
265,265,0.0866526025835563,0.0588440293763509,0.951377583186591,-0.00957065301524929,-0.00677248487763416,-0.00288333523845785,-0.163122891185605,-0.0135271282765902,0.0145640762850579
266,266,0.0865103381135509,0.0588996174129198,0.951374789944318,-0.011603872928512,-0.00527906908130105,-0.00244312247698079,-0.202474931523261,-0.00295258688731184,0.0259977738971468
267,267,0.0863434818586887,0.0589681887369715,0.951371930566341,-0.0135453304293367,-0.00395040291107106,-0.00206204921322866,-0.215740256653631,0.0343827509201927,-0.00753532532188847
268,268,0.086168528891198,0.0590370230629226,0.951369596646245,-0.0154402842889317,-0.00238086898661852,-0.00163567609416654,-0.214727879109979,0.054806437636624,0.00851751631997004
269,269,0.0860019749522769,0.0590933997723822,0.951368381671422,-0.0167378469441197,-0.00127959002254086,-0.00106919528948101,-0.230828654313309,0.0325717893458571,0.0436725958176931
270,270,0.0858603170856088,0.0591245992274785,0.951368879936388,-0.0174464911625971,-0.000626417711222229,-0.000276598755730467,-0.231633579651908,0.0208686062158474,0.0732881311073051
271,271,0.0857361806854769,0.0591260376147903,0.951371371680047,-0.0176355867629,-0.000895436090731119,0.00096727467411711,-0.189652744432045,-0.0204305603896252,0.109335567318041
272,272,0.0856185742723177,0.0591061996284524,0.95137546466816,-0.0173481156082576,-0.00192298659919555,0.00257992309794332,-0.176754910802265,-0.0428258153746567,0.143854521122658
273,273,0.085518571507393,0.059071971096613,0.951380742341074,-0.0168235021824757,-0.00312417041358428,0.00425658156596431,-0.129049387213053,-0.098487262157277,0.171751110132014
274,274,0.0854472460479804,0.0590302377908293,0.951386786350286,-0.0159594896324757,-0.00455963203802632,0.00568709428592968,-0.143708375285066,-0.0785291293060702,0.171822564921662
275,275,0.0854156711010913,0.058987883352181,0.951393177899099,-0.0149235069137969,-0.00500615160881869,0.00652495525608414,-0.0848754552249507,-0.110730027380758,0.17176508510297
276,276,0.0854395981327491,0.058940156530888,0.951400681338738,-0.0135027024854096,-0.00530163966182065,0.00674795010390224,-0.105758060746239,-0.0481656968654966,0.117454589104034
277,277,0.085511661040978,0.0588824796125384,0.951409573666078,-0.0111197245476763,-0.0045390649253138,0.00654378024223482,-0.0790601815502696,-0.0894828961247525,0.0837109317380192
278,278,0.0856082517541631,0.0588219886720553,0.951418707668348,-0.00859967154382043,-0.003548006769439,0.00601445955707814,-0.0726399939870675,-0.0737076493793668,0.017846824780669
279,279,0.0857057551272508,0.0587658134583179,0.951426938564169,-0.00629938276109687,-0.00251076313159906,0.00523362442712199,-0.0411377234131805,-0.0322750540583545,-0.0311237914601302
280,280,0.0857805476252097,0.0587210769956524,0.951433123418444,-0.00455366727844088,-0.00166773987019794,0.00428886858297716,-0.0291734538496817,-0.010814892132155,-0.0611517988060553
281,281,0.0858427596558702,0.0586846458623923,0.951436920795886,-0.00348654012388805,-0.00106870109360636,0.00299681606578577,-0.0329228671838046,-0.00724442651825989,-0.0766318102124386
282,282,0.085908137877583,0.0586517650170402,0.951439097574934,-0.00274779567976673,-0.000467437123503144,0.00131147661933971,-0.0127881947818691,-0.0648079106339753,-0.139783041498205
283,283,0.0859614760045792,0.0586271168009567,0.951440173856945,-0.00248610536492381,-0.0002549046218316,-0.000520310245273682,0.0558370422859262,-0.0579683023459437,-0.112225734108967
284,284,0.0859875675272977,0.0586153794598704,0.951440668924544,-0.00267391515342436,-0.000120055448778931,-0.0021724653332743,0.0158046565981163,-0.0668069596799342,-0.158459106114463
285,285,0.0859712054937473,0.0586212265482624,0.951441100484105,-0.00307910161923812,0.000357624248246671,-0.00344008141217345,0.0798717351824029,-0.0803930424144216,-0.0863871787774948
286,286,0.0859069187718391,0.0586479081052438,0.951441097937509,-0.00357952673515246,0.00124382550595311,-0.00422253456574116,0.0406380425084314,-0.0854086149166261,-0.0770130410830072
287,287,0.0858048369954945,0.0586922821274216,0.951440315280328,-0.00444193145166264,0.00239788393821734,-0.00472308589652782,0.0227588836853107,-0.11226708439053,-0.04536198253841
288,288,0.0856731546181541,0.05874943429763,0.951439304872686,-0.00551855454053404,0.00328587506052435,-0.00500597307847956,0.0340845324299277,-0.0643018579986536,-0.0438242419158963
289,289,0.0855200679084641,0.0588144569643201,0.951438619021466,-0.00675481006740437,0.00435774989858335,-0.00510242998526955,0.048415470519712,-0.0640075513856685,-0.0384418537250306
290,290,0.085353775491456,0.0588824501199575,0.951438810707582,-0.00707454786086433,0.00531091894130741,-0.00512561232590307,-0.0517918099352396,-0.012444702184579,-0.0499907441688339
291,291,0.085164986149336,0.0589584487801173,0.951439895762113,-0.0077391161534545,0.00664362485839766,-0.00494576608693839,-0.0650258894805542,-0.00205770268482226,-0.0127497966152551
292,292,0.0849482211973917,0.0590457034148223,0.951441499802876,-0.00885160309459233,0.00699263169606727,-0.004531924365359,0.0399058356559513,0.0337268340516724,0.0235095336753608
293,293,0.0847174093846555,0.0591366473328864,0.95144359367664,-0.0103447789260907,0.00735496938774245,-0.00397281730570907,0.117707820784339,-0.0326218671482689,0.044966325448021
294,294,0.0844864925429083,0.0592237195839233,0.951446151726726,-0.0111627098120423,0.00783421298687238,-0.00339826857677092,0.0210302875769892,-0.00778184142577541,-0.00605219423033621
295,295,0.0842694266113315,0.0592993650555591,0.951449151854228,-0.0118485709030332,0.00829620081859153,-0.00288338305851464,0.00886820427693167,0.0037815557506782,0.00985047665560388
296,296,0.0840629960133426,0.059363710531096,0.951452685932681,-0.0124178809126943,0.00866801717907549,-0.00241436842450152,-0.0285941267821282,0.0565210232283554,0.0383558714574476
297,297,0.0838579249371673,0.0594217870225541,0.951456769120552,-0.0129554575243695,0.00882075574894555,-0.00193012812057886,-0.0497575099980725,0.0293132846012928,0.0457197492789757
298,298,0.0836590850037576,0.0594734039523232,0.951461269581638,-0.0131913446996811,0.00861268761430068,-0.00143734878387895,-0.0894822049453724,0.0298757494182986,0.0138786952992041
299,299,0.0834713399272177,0.0595183769295486,0.951466059344197,-0.0132560260352792,0.00895294438981852,-0.000979778946909781,-0.14685802647836,-0.0500591150089908,0.0324336609683247
300,300,0.0832995450398154,0.0595565287165148,0.951471014092973,-0.0133567833120912,0.00855601558011423,-0.00058511451704021,-0.131257855251251,-0.0499344191184282,0.0295880086648066
301,301,0.0831471424434272,0.0595879904526051,0.95147647674323,-0.0134767865938359,0.00850741029961466,-0.000261870739457629,-0.119210371924622,-0.0697416672376919,0.0465522913980616
302,302,0.0830109130444059,0.0596129005011145,0.95148254028161,-0.0134674677568792,0.00814513654617263,1.51116371832563e-05,-0.145625679915346,-0.0884417467966969,0.0293154913568208
303,303,0.0828857060954112,0.0596310879990823,0.9514887057221,-0.0136218803167275,0.00749342167020181,0.000248619456706889,-0.112413667887483,-0.111022821868988,0.0450322513936422
304,304,0.0827663595992393,0.0596423671205753,0.951494471870546,-0.0135829242040484,0.00700152130151012,0.000448499972680098,-0.0633164776670221,-0.093863831013314,0.03309281933804
305,305,0.0826476992418383,0.0596465354236515,0.951499336013764,-0.0133255167828488,0.00688564219590395,0.000619200648516619,-0.0518797569588761,-0.137119564590093,0.0314651714248623
306,306,0.082530293681651,0.0596433229865014,0.95150281048017,-0.0128135602614817,0.00702631733593584,0.000768520087618253,0.00775903723285985,-0.111923141026932,0.0283797811021735
307,307,0.0824175708226004,0.0596328397743477,0.95150523605486,-0.0119932146641545,0.00726784999550513,0.000874395199569007,-0.016897875135719,-0.106527925113235,0.0341772990025199
308,308,0.0823086480678353,0.0596154482139202,0.951507350655923,-0.0112037652978107,0.00739904081992823,0.000958047520365644,0.00543525214400413,-0.105511745638257,0.0519918249149126
309,309,0.0822026608088634,0.0595915232347187,0.951509890197807,-0.0103370849708597,0.00722527785359466,0.0009944798218625,0.0147234983920424,-0.0158794713886111,0.00840378284680192
310,310,0.0820987635558105,0.0595614534949351,0.951513588230689,-0.00989994445811977,0.00693648566925239,0.000991493415260754,0.0158877215438262,-0.0127777367350654,0.0562882619882528
311,311,0.0819984438026506,0.0595251893003113,0.951518616114246,-0.00950725383051709,0.00667900176956183,0.000928791455904264,-0.0380506655133588,0.0115706295830259,0.0345185038717704
312,312,0.0819022956819839,0.0594824703411011,0.95152448657345,-0.00898486616084085,0.00654313580889371,0.000809475817962644,-0.0556042343751152,0.00884309341161504,0.0207274884568772
313,313,0.0818081408574168,0.0594333920798288,0.95153094335761,-0.00865144845906012,0.00625765362835492,0.000659761607634863,-0.0495693260302544,-0.00550874577014917,-0.0071745140927708
314,314,0.0817137895261538,0.0593780662051312,0.951537730312373,-0.00836147206318336,0.00583584196480684,0.0004891184760203,-0.0955139871470137,-0.0205149632460393,0.0240580838828142
315,315,0.0816170394078913,0.0593166210155527,0.951544591635824,-0.00796740374697233,0.0062525414081411,0.00030671968261371,-0.0810428287580278,-0.0718802554803611,0.00652357132018022
316,316,0.0815209104345949,0.0592440341985049,0.951551999685389,-0.00807049041694757,0.00616415440550088,0.000111180004755362,-0.0365276427431858,-0.0680210013859619,0.015308690437545
317,317,0.0814268697967294,0.059160274056028,0.95156012879191,-0.00808139425503151,0.00590802206319589,-0.000124260024385081,-0.0303321058956982,-0.0749541777183883,-0.0144611460466089
318,318,0.0813303783749331,0.0590729546049008,0.951568275757459,-0.00824236250889314,0.00575281711207041,-0.000382653928672813,-0.0158946350770503,-0.0543118208213635,-0.00418924881960308
319,319,0.0812269006862826,0.0589896719750002,0.95157573607551,-0.00857710429832483,0.0056901768038567,-0.000613168959802785,0.00836120958962204,-0.0607151775667985,0.00134732423017048
320,320,0.0811119054928503,0.0589180035739914,0.95158180374419,-0.00879822357826386,0.00591974265266588,-0.000779698836637151,-0.0059878637405646,-0.0420218919000607,-0.0147250613437923
321,321,0.0809824076415756,0.0588575226348471,0.951586316845452,-0.0091426980330481,0.00633230631627471,-0.000882806252274446,0.0131583763985549,-0.0229591955966993,0.00648692990077837
322,322,0.0808414342279669,0.0588031882548948,0.951589748014421,-0.0094748130978451,0.00690072460069072,-0.000935853803617895,0.0175355938249072,-0.00788470508878323,0.00153486761220552
323,323,0.0806934759110947,0.0587556419590103,0.951592341160894,-0.00977259610441823,0.00757856020675492,-0.000942744975642611,-0.00651570497424976,0.00513034349485327,-0.0229509155166354
324,324,0.0805430234797917,0.0587155246099823,0.951594339252831,-0.0100897799770584,0.00825478361709164,-0.00096224460601486,0.0105205683600906,0.0636561238765422,0.01274412775314
325,325,0.0803945673768521,0.0586834760185507,0.951595984337739,-0.0105654027207576,0.00876147344373161,-0.000985999686854331,0.0093808371825992,0.00519085752023542,0.0244834262891605
326,326,0.0802501053223005,0.0586612770598282,0.951597343360692,-0.0108757257596222,0.00973460363661694,-0.00102209271403752,-0.0246968024299409,0.0162497903534631,0.02451429467286
327,327,0.0801066522627966,0.0586485065218547,0.951598255511883,-0.0112929461720765,0.0106444761489238,-0.00106591545138901,-0.0695214394131651,0.0045378700389602,-0.0216260336073744
328,328,0.0799612175442744,0.0586425030221011,0.951598619990672,-0.0120166485536744,0.011573107071508,-0.00109710154134163,-0.0770279970845258,0.0127931759550625,-0.0218593216554204
329,329,0.0798108028400931,0.0586406091611919,0.951598335164686,-0.0130827944125577,0.011679033019462,-0.001101654483102,0.054019478921345,0.0583007446346596,0.0494692053795273
330,330,0.0796524026951428,0.0586401714830192,0.951597298559729,-0.0130533121271507,0.0128431166107716,-0.00110832765853108,-0.037425375879245,0.00612631710662557,0.00339045943717243
331,331,0.0794832727415707,0.0586407927365306,0.951595195590718,-0.0129818307167896,0.0133213768266254,-0.0010760583238617,-0.0353538194530122,0.0490611269418592,0.00485521092190069
332,332,0.0793054004344137,0.058644257830868,0.951592094913794,-0.0134372444442201,0.013850380790812,-0.00101261450074128,0.0158823708723224,0.0496890706288398,0.0257308055838285
333,333,0.0791228785679333,0.0586511850270081,0.951588466578142,-0.0136956045709514,0.014470160385301,-0.000914062901814048,-0.0183924983530342,0.0689475002153606,-0.00102505849790657
334,334,0.0789398073237544,0.0586621867840921,0.951584778211285,-0.0144107363200861,0.0148934001182654,-0.000800969770515018,0.0725171871340327,0.0812303915402265,0.0505962181293377
335,335,0.0787602938789066,0.0586778700301301,0.951581495076883,-0.0148352731889775,0.0153616326428185,-0.000637031673713435,0.0145380276757872,0.0938828027515965,0.0325271899342552
336,336,0.0785850428454878,0.0586998157815356,0.951578574926811,-0.0152786928998334,0.0159032335198233,-0.000401355823209587,-0.0147712819310024,0.131268372537847,0.0614632379862643
337,337,0.078411315152547,0.0587276170140631,0.951575702411269,-0.0156182942041222,0.0166325906079148,-9.4041362035911e-05,-0.0333417023190063,0.139097099044348,0.0655285363834318
338,338,0.0782380618349676,0.0587588970888097,0.951572931915281,-0.0158461449610297,0.0172398877477766,0.000236805974961172,-0.0693205687605768,0.148927261186918,0.0305276886783702
339,339,0.0780642395451546,0.0587912825929095,0.951570318332008,-0.0164076002069104,0.0179507268809331,0.000521972564567179,-0.027705380957219,0.152198397306342,0.050738206696964
340,340,0.0778888101608271,0.0588224032449032,0.951567916968343,-0.0170298734951414,0.0181726785177925,0.000707949355232493,-0.0545995087779367,0.160079384699138,0.0284919858535198
341,341,0.077714923521851,0.0588509638293936,0.951565831088971,-0.0179004882376127,0.0180806838736382,0.00072425754925845,-0.044681991783596,0.2096897324839,0.0512109828472897
342,342,0.0775432857379317,0.0588785503989717,0.951564020116381,-0.0186390817377098,0.0184706877591293,0.000654456911708818,-0.117938230611386,0.136522740584241,0.025960995657808
343,343,0.0773691908529447,0.0589071144651689,0.951562324536584,-0.0195950714735873,0.0184422960483906,0.000541724733527644,-0.130985739588736,0.159429438908826,0.029014480138484
344,344,0.0771879256703161,0.058938604561523,0.951560585841294,-0.0203741705294846,0.0185674375544496,0.000453149275987671,-0.125027865179423,0.112257836976104,0.013154141116387
345,345,0.076994770432567,0.0589749664966119,0.951558646540761,-0.0210688553183214,0.0186235008937157,0.000402553866279657,-0.121696604003266,0.115388811570198,-0.0194431345335431
346,346,0.0767863128053669,0.0590157266950176,0.951556350645892,-0.0222555554801642,0.0183539862690881,0.000398125090197436,-0.0707138767494076,0.0968485276150311,0.0174671806781523
347,347,0.0765656978914377,0.0590595842964481,0.951553802828857,-0.0230266923429074,0.018279797824948,0.000402535323311164,-0.0803252733130613,0.0879189393718351,-0.0108996804687166
348,348,0.0763380298166319,0.0591072434463417,0.951551236742385,-0.024102096380265,0.0176406550080279,0.000443802294004879,-0.0570546907380487,0.0986990452478037,0.0483121275052923
349,349,0.0761084028777289,0.0591594095422412,0.951548885177183,-0.0248847940178127,0.0174864341897279,0.000501796472478138,-0.0691019383762524,0.0781173465290417,0.0285379984373748
350,350,0.0758819022474399,0.0592167889156151,0.951546979992456,-0.0253830007255364,0.0175199580307872,0.000595122607576256,-0.0559924278712314,0.0436172041324689,0.029574388366732
351,351,0.0756534978580705,0.0592815332553991,0.951545989318358,-0.0254366545914652,0.0174188149994213,0.0007223851659332,-0.0564281220876317,0.0782166841650462,0.0395584096929637
352,352,0.0754197737085312,0.0593531709483424,0.951545757015036,-0.0253482262196622,0.0175821759130987,0.000895253229229002,-0.0739102931952216,0.0866770660090077,0.0420591004329313
353,353,0.0751882332077297,0.0594284724120469,0.951545576686534,-0.0251768373907458,0.0176125247464979,0.00108250339142151,-0.0735600712088863,0.0987301551424861,0.0446957307495703
354,354,0.0749663839452773,0.0595042062018248,0.951544740520086,-0.0247574355121671,0.0176557176940568,0.00128654369833466,-0.0690637402892037,0.0663067994969885,0.00889023419551568
355,355,0.0747617372248252,0.0595771391761454,0.951542539431344,-0.0245456936442843,0.0176037393028836,0.00146551307527868,-0.00970087008611243,0.0813115839204073,0.0419969453542987
356,356,0.0745774082170876,0.0596457173357884,0.951538562960059,-0.0239668614071244,0.0170105858393686,0.00162153258815449,-0.0336534274428892,0.0733963634292416,0.0338966691867443
357,357,0.07440837419815,0.0597120875299945,0.951533278808515,-0.0236194340941944,0.0166802891919902,0.00179915454631793,0.00591134209558391,0.0707568759783867,0.033838331421532
358,358,0.0742499470335892,0.0597785693429068,0.951527294971235,-0.0228714082798895,0.0160515143108081,0.00197679259265866,-0.0140861172048008,0.0629875343739166,0.0470295165057241
359,359,0.0740974445271988,0.0598474857394806,0.95152122023283,-0.0223159955712964,0.0154098631120562,0.00213939921544178,0.0242620100321522,0.0751404448671307,0.0592545165713407
360,360,0.0739461899553745,0.0599211629494181,0.951515664169876,-0.0214388725658737,0.0147753847273723,0.0022888097243294,0.00506634242343243,0.0756765025572088,0.0292715872007173
361,361,0.0737966504506416,0.0600053049792146,0.951509409868174,-0.0206465576261847,0.0145658566420106,0.00248437862394513,0.00192076833219644,0.0578639985087364,0.0261369661368583
362,362,0.0736519445261322,0.0600983594381995,0.951502049352542,-0.0200881570631955,0.0145020720866687,0.00272390743876656,0.00188112172498184,0.0669643677786825,0.0604481169535203
363,363,0.0735113756034468,0.0601917713566142,0.951495405996701,-0.0195129973324644,0.0146011089047219,0.00294420391866185,0.00774747469658591,0.0269986587843951,0.0270777753846445
364,364,0.0733742462496846,0.0602769871599233,0.95149130261196,-0.0188259810744506,0.0145138197121436,0.00305972101446691,-0.00153708316628778,0.058364564790125,0.0441351269940777
365,365,0.0732398581023583,0.0603454548000029,0.951491561460565,-0.0184304422286225,0.0142622480675376,0.00299692863902994,0.0374880847705591,0.0315195086296003,0.0342515312276956
366,366,0.0731140928240613,0.0603978379269894,0.951488142465983,-0.0178458689353532,0.0138995888292027,0.00269161165834586,-0.0305326761656527,0.0148665605245455,-0.0164286757746993
367,367,0.072997410080508,0.060439841371015,0.951479828578555,-0.017408137932077,0.0129517775345167,0.00218636567882105,-0.00845553544296536,0.0351593174887232,-0.0340653221777803
368,368,0.072880980851,0.0604704723760739,0.951478677086271,-0.0171304745799987,0.0123075417130135,0.00158062499435369,0.041193925713926,-0.00177144662443609,-0.0752173077532818
369,369,0.0727559807505407,0.0604887336959976,0.951496746017792,-0.0169758118494865,0.0114282999161957,0.000975492177561093,0.0611838964767802,-0.00463243475274339,-0.0246578430638416
370,370,0.0726135902229556,0.0604936239876028,0.951546093684951,-0.0168069581109355,0.0107161995932636,0.000428198893713638,0.0928473384293921,-0.00174936047616118,-0.0315470186669947
371,371,0.0724494944012987,0.0604783189933752,0.951644816374099,-0.0163288624756078,0.00978680497715217,-3.1573655787519e-05,0.0420082150283283,0.0106780879015016,-0.0389313757007362
372,372,0.0722695803178279,0.0604434788343098,0.951784873432029,-0.0158893907837025,0.00877704604178055,-0.000519845118225802,0.102714707617923,0.0273508537504174,-0.0181738887302934
373,373,0.0720803312666126,0.0603993259437432,0.951939118577132,-0.0153347278424182,0.008022980419936,-0.000938040565370262,0.033800436097139,-0.000694829695784475,-0.0489853989894977
374,374,0.0718882257920855,0.0603560825235971,0.952080407328407,-0.0149709924899689,0.00732398026525148,-0.00127922288419002,0.0598464741571824,-0.0302866962915231,-0.0581423226127651
375,375,0.071699737796881,0.0603239702579029,0.952181597370832,-0.0148927921918546,0.00669157944810001,-0.00148111507726849,0.0844101416587783,-0.0593039394335221,-0.0378466567969153
376,376,0.0715111464864023,0.060305141913269,0.952235241537721,-0.0149321539025791,0.00625672363635393,-0.00147765113071453,0.0633995386593777,-0.0463887163577411,-0.0138460995593779
377,377,0.0713181313864008,0.0602927759874043,0.952259437676883,-0.0151004285912234,0.00561837128948488,-0.00130709383681269,0.0425544536288839,-0.0395050537228838,0.00181127386198184
378,378,0.0711262621150621,0.0602836323339243,0.952265361421525,-0.0151136837786641,0.005099482487649,-0.00105242072309279,0.0330119361946219,-0.00539978377138441,0.00589304126989377
379,379,0.0709411067690878,0.0602744708983882,0.952264186434247,-0.0152771728665475,0.00443444764957241,-0.000849754816298045,0.0420988510498634,0.0092588036672653,0.0272359135628335
380,380,0.0707682320543744,0.060262051703017,0.952267084496688,-0.0152748876035632,0.00395710463604299,-0.000754495793227102,0.0499677890442495,-0.00757769319221366,0.00293793784497928
381,381,0.0706090554355911,0.0602463858404571,0.952272977201256,-0.0150800540158463,0.00397297662601665,-0.00077470817752385,0.0331934826824835,-0.0076673183390679,-0.0133540246387032
382,382,0.0704598586537521,0.0602296266726734,0.952274415720192,-0.0148515455899043,0.00415638079734033,-0.000875647135584757,0.0407221021708867,-0.0292461789771794,0.0150446768764127
383,383,0.0703185025114613,0.0602117470905862,0.952273015548629,-0.0143742055225621,0.00413995289874168,-0.0010260579093506,0.0310154203663051,0.0198105540591938,-0.0203701971202319
384,384,0.0701828463122091,0.0601927196201503,0.952270392441275,-0.0138618961901515,0.00410533589017083,-0.0011730646335208,0.0174755465547175,-0.0187050829649441,-0.0139194132448998
385,385,0.0700507481788444,0.0601725166152096,0.952268162244748,-0.0134827574468591,0.00394775029122033,-0.00128710094746012,0.024551795202532,-0.000746113276834646,-0.0311446347008927
386,386,0.0699218806032974,0.0601471812836739,0.952265502752953,-0.0134073731567218,0.00339637603573873,-0.00139277637624507,0.0526111007215528,-0.00794628805066563,-0.0175584342204285
387,387,0.0697976586369571,0.0601167266920884,0.952261338063761,-0.0130461071421199,0.00291617909940989,-0.00151681510002533,-0.0221994289346535,-0.0117330950239367,-0.0354020450512767
388,388,0.0696785593876957,0.0600870776398839,0.95225690229374,-0.0130705478494952,0.00251717631252385,-0.0016216843610926,0.0210877554361224,-0.000910340616905897,-0.00803161597217033
389,389,0.0695650677850645,0.060064155787242,0.952253427710579,-0.0129968826226922,0.00179162087546074,-0.00163982933625565,0.0371802679196608,0.0454483824638316,0.0453290418916409
390,390,0.0694576752313995,0.0600538800810173,0.95225214495154,-0.0127236663277249,0.00166020129393639,-0.00152276319700537,-0.0159158703029478,0.0435238243918788,0.0164726085670424
391,391,0.0693569485874121,0.0600596116736496,0.952253528959172,-0.0122756012910183,0.0015297621968731,-0.00117006178341023,0.0381487214955088,0.100739555098092,0.0524531561941917
392,392,0.0692625646561667,0.0600773937281513,0.952256757092084,-0.011894117332164,0.00166184364335296,-0.000629217495843634,0.028148558838862,0.084001007698139,0.087968654388937
393,393,0.0691736816287613,0.0601021683990143,0.952261112924323,-0.0112009070597174,0.00272949068385157,-2.99068034442047e-05,0.00346907172273821,0.0541387489526906,0.0726512315329318
394,394,0.069089457083062,0.0601288798599978,0.95226588007999,-0.0103279070668905,0.00377581960512931,0.000471518293968176,-0.0258464165566827,0.055381017806046,0.0281647367625129
395,395,0.0690090488799699,0.0601524739694359,0.952270342133771,-0.0100162860148456,0.00332710803313318,0.000696271399942234,0.0413004887617905,0.12837382847816,0.0243120537924648
396,396,0.0689354303092602,0.0601730921886936,0.95227492523734,-0.0100260890112463,0.0035892154388729,0.000615321615248191,0.0243900802223157,0.0465897412710797,0.007678085443048
397,397,0.0688691621274578,0.0601941008155137,0.952280106027676,-0.00989684707821877,0.00361211995698492,0.000312668624803878,-0.0248580347943189,0.0232391476807927,-0.0161983983212198
398,398,0.068805783507501,0.0602152842584968,0.952285244098514,-0.00980113441041702,0.00359078327565852,-0.000104144610002209,0.00781308797458408,0.0143645082403876,-0.0270581958856565
399,399,0.0687408334806511,0.0602364272515905,0.952289699214666,-0.00970199063117681,0.00336718858838074,-0.000522579900910199,-0.00178446001201141,0.0136565334965147,-0.00895856969364908
400,400,0.0686698510885069,0.0602573146241818,0.952292831177361,-0.00942787929014151,0.00321413130508611,-0.000838633821929614,-0.0136342429544094,0.0304616153734562,-0.0469777384390667
401,401,0.0685923535646184,0.0602772059390589,0.952294396968116,-0.00891210480823565,0.00314518580455279,-0.0010767554739201,0.0097985484348529,0.000914999359480415,-0.0345399137998385
402,402,0.0685113139063629,0.0602962431554984,0.952294823286162,-0.00806348559734009,0.00318410599904843,-0.00131133067643315,0.0156966326761521,0.0104225413640642,-0.0359632183838938
403,403,0.0684274549884595,0.0603155348566208,0.952294474662086,-0.0073009074250124,0.00302394109764199,-0.0015135075355069,0.0144572223529985,0.0147066570328726,-0.00835381605241622
404,404,0.0683414998665122,0.0603361897307051,0.952293715795975,-0.00662383183659503,0.00307679567607787,-0.00162953928981608,0.0276429438298056,0.00861760232269902,-0.00221655138000338
405,405,0.0682541716834271,0.0603593163139394,0.952292911689553,-0.00630117924007939,0.00286306403038317,-0.00164608903939396,0.0477720257181269,0.0407013072232591,0.0355769318598867
406,406,0.0681621013554097,0.0603878137128407,0.952293878547938,-0.00607991802043923,0.00254803651768202,-0.00146782907375203,0.0295943437224288,0.0224014233967935,0.0302693829056937
407,407,0.0680648053698493,0.060420939717481,0.95229637474728,-0.00625316512082282,0.00208589800250291,-0.00112879185449079,-0.00189082318174311,0.025356844664079,0.0434184213103882
408,408,0.0679673366385569,0.0604543425971898,0.95229767774686,-0.0064887607380309,0.00155158126703046,-0.000745526618662028,-0.0090780335538476,0.0550480898476026,0.049499794475062
409,409,0.0678747504708842,0.0604836738561502,0.952295063087399,-0.00687358597396537,0.00112481154712093,-0.000446590945378161,0.0148450546430156,0.033567825563733,0.0353378259285266
410,410,0.0677921046385719,0.0605045881705825,0.952285804588501,-0.00684402145158103,0.000941611755661921,-0.000329580924048922,0.00737920978190942,0.0320469272168432,0.00967561635928415
411,411,0.0677195256376514,0.0605110950008042,0.952277135967006,-0.00683754270951809,0.00119441997798353,-0.000450048348877797,0.0406941815407432,0.00403847445049695,0.011503155700937
412,412,0.0676536453492523,0.0605060946260904,0.952270874213702,-0.00643551637661299,0.00127421333615769,-0.00073092096611397,0.0374021892079181,-0.00195795347226249,-0.0156129976680744
413,413,0.0675942818010715,0.0604985788114119,0.952256166655093,-0.00608096889446079,0.00115874230324665,-0.00110963258510563,0.0973733671755009,0.0516395002355043,-0.0186371354007928
414,414,0.0675412550584364,0.0604975391181186,0.952222159227918,-0.00555390234541745,0.000801134590282613,-0.00148198002217419,0.0562006004362936,0.0745453080299561,-0.0509728428852018
415,415,0.0674943882894327,0.0605119678492388,0.952157996019169,-0.00511343748701926,6.02996832451816e-05,-0.00178230510083887,0.0450688117798761,0.0561343149018793,-0.0160038097340628
416,416,0.0674504571412483,0.0605468129975216,0.952044033208019,-0.00470980585854902,-0.00107698362203334,-0.00204205192453796,0.0238827141379207,0.0507777046487412,-0.0113230487774746
417,417,0.0674095942471713,0.0605960850461681,0.951887503371804,-0.00403807977031187,-0.00197706314823245,-0.00230214476821583,0.0131828328033959,0.00275349530539866,-0.0317318010906742
418,418,0.0673766584197488,0.0606523694314982,0.951717865397218,-0.00317954660902975,-0.0015824060278477,-0.00252459460379046,0.0151928528340587,-0.103221187271016,-0.0326861943137148
419,419,0.0673565041018642,0.0607082490961373,0.951564580789983,-0.00208646895622386,-0.00197655588730349,-0.00267601835394426,-0.00436122285025049,-0.0599554719072242,-0.0380731977419803
420,420,0.0673539798205483,0.0607563039085537,0.951457113615445,-0.00167912527338899,-0.00321962650969419,-0.00269252710175477,0.0251893675774502,-0.00843029544758807,0.0532387333518463
421,421,0.0673770370749114,0.060796048047375,0.95140400676544,-0.00045275535159784,-0.00381619207682893,-0.00248927098909092,-0.0580500955202486,0.00742158161940122,0.0250338855584385
422,422,0.0674224488222449,0.0608324288170799,0.951385617417413,0.000693402588867292,-0.00354475474666267,-0.00210491735715275,-0.0385844729942293,-0.00435260466598429,0.0629569594507897
423,423,0.067478289036294,0.060866174051903,0.951389133379774,0.00120401619958256,-0.00374254986672485,-0.00165144826521867,0.0370846079111457,0.0393038977547534,0.077819607990853
424,424,0.0675326302145717,0.0608980122648876,0.951401743945023,0.00197128113836793,-0.00412882987983402,-0.00127167932351444,-0.0023697535321635,0.0599713906075714,0.0359875414635114
425,425,0.0675735429172427,0.0609286727803856,0.951410640343059,0.00234105665902156,-0.0045701354430669,-0.00108649553265247,0.0014800700687934,0.0716414869936171,0.0372077434306007
426,426,0.0675971623941414,0.0609580223849077,0.951418427567901,0.00256187415264218,-0.00516582914788678,-0.00114833412580398,-0.0170006087731752,0.0577010475663793,0.00513474922418954
427,427,0.0676114334717571,0.0609855810974005,0.951433649421006,0.00211738286145906,-0.0053460048774629,-0.00136965742679537,0.00091571527139796,0.043145991248252,0.00330750683072556
428,428,0.0676221453435753,0.0610115556096154,0.951452405724845,0.0016808434795036,-0.00558274182657398,-0.00162750187324329,0.00225740062323191,0.00185088604790925,0.00458428802762617
429,429,0.0676350964292369,0.06103614759006,0.951470794443735,0.00125515506392023,-0.00608784557062763,-0.00183215826836515,-0.0251703552126586,-0.000320577982053162,0.0147662415539856
430,430,0.0676560954577281,0.0610595527911802,0.951484911514542,0.00110687756025913,-0.00629955368861976,-0.0018713198288645,-0.0434749218387443,0.0208454492852597,-0.0282806575863243
431,431,0.0676846791785844,0.061082371956351,0.951493917068886,0.000643431660405327,-0.00605113478434288,-0.00169370824177541,-0.060695182876382,-0.00739235900773763,0.0223587750084968
432,432,0.0677169943033093,0.0611044651345229,0.95150041446864,2.58426265491948e-05,-0.00572627415970357,-0.00141734650670542,-0.0422640249018281,0.0141773485150444,0.0459477355245357
433,433,0.0677537657838086,0.0611249120740879,0.951505663401027,-0.00014632544936107,-0.00563653541665844,-0.00107334469101218,-0.0700822052043637,0.0584315814319642,0.0429784180577391
434,434,0.0677957082438878,0.0611427930505845,0.951510924050212,-0.000389068844381528,-0.00572217829478325,-0.000714040131178247,-0.0164321145415106,0.0518267821848882,0.040188886198387
435,435,0.0678435254808893,0.0611571891676441,0.951517457095816,-0.000143723529391307,-0.00593940318827265,-0.000413169892400446,0.00162792948463676,0.105054584332177,0.0482146307644522
436,436,0.0678968695567868,0.0611690520537279,0.951525458997847,0.000427900752538472,-0.00654825515487342,-0.000114534253478792,0.0484964406906106,0.0751164453799634,0.0708929152893153
437,437,0.0679552592897052,0.061178978055015,0.951534092452966,0.00154920128740572,-0.00704468602128507,0.000233729701512382,0.0361466911594308,0.0555195026297674,0.0449130875794011
438,438,0.0680191966338631,0.0611855234613147,0.951543066865664,0.00284452008242502,-0.00758523918016894,0.000563230435017972,0.0831506186013247,0.0445314184114077,0.0427520311672918
439,439,0.0680891925926952,0.0611872550241694,0.951552090154773,0.00418345054964266,-0.00786498259453376,0.00077153463222867,0.0899602083331051,-0.0063978460426807,0.0406771794383508
440,440,0.0681657674221118,0.0611827502659331,0.951560868760923,0.00523371826611529,-0.00824754605667747,0.000792868020131958,0.062757438295418,-0.0122363572820918,0.0299906913713153
441,441,0.0682531114740079,0.0611723911664801,0.95156993760958,0.00615646156560647,-0.00850546641513885,0.000529349668145308,0.0798810386861239,-0.0430312825258999,-0.0049653765636441
442,442,0.0683508900380251,0.0611571278252003,0.95157949168944,0.00701511385832069,-0.00885063483309703,2.52491560342466e-05,0.102505431768855,-0.0103931523056172,0.00830490484978555
443,443,0.0684528378682692,0.0611364086257125,0.951588727520098,0.00776166973971367,-0.00939898744443469,-0.000562913460073324,0.0953518427494716,-0.0273602439657687,-0.0520753553605633
444,444,0.0685526837817435,0.0611096962074121,0.951596842877781,0.00825276747353061,-0.0100674310074204,-0.00116747034744252,0.158989339970132,-0.00836765871962434,-0.0331385575445713
445,445,0.0686441508639613,0.0610764665536319,0.951603036489398,0.00873223552304201,-0.0106039502663051,-0.00160561265820263,0.159890882934159,-0.0521942079477928,-0.0505438334267931
446,446,0.0687227614689629,0.0610369374703896,0.951606889848157,0.00904534700535517,-0.0113182885555692,-0.00193304967439678,0.180426851172988,-0.0129231951570092,-0.0258754065346751
447,447,0.0687926959931701,0.0609914992673902,0.95160893910993,0.00959951125934934,-0.0119512327932468,-0.002199909286047,0.131184584606946,-0.0120072757183808,-0.0371036968614604
448,448,0.0688606613716501,0.060939885789496,0.951609814858787,0.0100505501065437,-0.0125250236622507,-0.00240438707947392,0.128260686467992,-0.0349131724548432,-0.0227443798586484
449,449,0.0689333657826617,0.0608818179947322,0.951610147443711,0.0106056663158079,-0.0129479356194084,-0.00252070638703695,0.0889820605755105,-0.00866071755004038,0.00385920397507253
450,450,0.069017518595017,0.0608170046758706,0.95161056730796,0.011241487588585,-0.0133918521921995,-0.00257595317578218,0.080068327988708,-0.0348887774054121,-0.0110204788760103
451,451,0.0691146496020235,0.0607445664885065,0.951610779928623,0.011673071307013,-0.013779945672506,-0.00251695896744805,0.0791420789075127,-0.00204315113791754,-0.00418699537723217
452,452,0.069220284334925,0.0606647050904158,0.951610366232359,0.012084901310667,-0.0141570639739964,-0.00234820655981285,0.0680084912330165,-0.0236685432104695,0.00589855998031106
453,453,0.069332126556077,0.0605787371772753,0.951609769433562,0.0125178223921491,-0.0142242437095928,-0.00212232777231748,0.0815070059657892,0.00020160311905279,0.0126379726261195
454,454,0.0694478800470291,0.0604879731791104,0.951609431891417,0.0130590233406999,-0.0142858149174926,-0.00189211628897502,0.0536343890466824,-0.034386664551899,-0.000754299801320678
455,455,0.0695652485974444,0.0603937175938961,0.951609795020885,0.0131756394452814,-0.0148778028853343,-0.00169104027497114,0.0795990727233209,0.0334120826916208,0.0405645728119941
456,456,0.0696871031150357,0.0602918850099586,0.951611082259204,0.0134165013726845,-0.0149554243306004,-0.00152197783880556,0.0441381206840964,0.0168594072800507,0.0278485500297144
457,457,0.0698149728726532,0.0601815942334816,0.951612998960745,0.0135912993659358,-0.0153180942308901,-0.00135657856858236,0.0447278130002537,0.0420916574637376,0.0119434103073265
458,458,0.0699445481696221,0.06006895596462,0.95161520854045,0.0137145558765168,-0.0156747255418014,-0.00119249887042604,0.00113227357077539,0.015505439925128,0.0128533538135746
459,459,0.0700715181837402,0.0599600862991224,0.95161737413295,0.0133796435437557,-0.0158064135451784,-0.00105111775022427,0.0791049539359455,0.030577854058784,0.037599996614877
460,460,0.0701915711198004,0.0598611066362058,0.951619158613205,0.0133302893943953,-0.01555775536755,-0.000926418964382168,-0.0065130954388085,0.0276454905491561,-0.0115958763363319
461,461,0.0703046112134061,0.0597725743200475,0.951620519983292,0.0127232923547656,-0.0157358862507232,-0.000865108130590845,0.0330537511175077,0.0356608092140105,0.0291921390995246
462,462,0.0704135080830094,0.0596904125597943,0.951621682235941,0.0120852114800734,-0.0151155910883916,-0.000840266518388482,0.0125855765065411,0.0235809559182863,0.0152727382300529
463,463,0.0705183977146504,0.0596137937333218,0.951622706906437,0.0116877811096841,-0.0140654753836385,-0.000833902268344772,0.0209187540729695,-0.00765174012930161,-0.00154610086124516
464,464,0.0706194166095368,0.0595418877967593,0.951623655267395,0.0111266694783372,-0.0135175515874712,-0.000804144910126302,0.00772736796003137,0.0523498213106631,-0.000889799863822222
465,465,0.0707167017159908,0.0594738622463237,0.951624588337413,0.010816472230681,-0.0130016885741615,-0.000721447100763677,-0.00468164094063749,0.0401178040570047,0.00785294606201395
466,466,0.0708050782116722,0.0594111801557693,0.951625497187291,0.0104913758293832,-0.0126757918319393,-0.000569482118395459,-0.00301465329272211,0.0302010414261879,0.0247488711834041
467,467,0.0708844519970319,0.0593543949630604,0.951626339587696,0.0101979116590765,-0.0123892700879549,-0.000327131979975046,-0.02323035769808,0.0359921460346289,0.0304886786135807
468,468,0.0709625804630753,0.0593013067395347,0.951627127159058,0.010189440012181,-0.0121867419632381,-8.04716875725596e-05,-0.02264716360218,0.0173758382905905,0.0260081818386207
469,469,0.071047219671228,0.0592497142339677,0.951627872393814,0.0099961232584883,-0.0121205301112605,0.000145507898579106,0.0138720032376103,0.00526510259954448,0.0324095057045001
470,470,0.0711461243689018,0.0591974149903468,0.95162858857152,0.0100163270894269,-0.0122499020330828,0.000282394427470595,-0.0106835886574182,0.0249868375807581,0.0456355897599629
471,471,0.071266862163192,0.0591453855356573,0.951629420473662,0.0102155691020525,-0.0117128755620381,0.000369384349463817,0.00671873469876922,-0.0346281767691041,0.0409064376419502
472,472,0.0714042553319079,0.0590950892993092,0.951630360421273,0.0106179393854357,-0.0112492955558835,0.000405253324397729,-0.000502047367261775,0.0114154183410842,0.0416045837002674
473,473,0.0715469422847733,0.0590450535837692,0.951631192757956,0.0109703244625201,-0.0110772074390891,0.000396550191690563,0.0234901089023623,-0.0118909587201179,0.0165099575230168
474,474,0.0716835649314619,0.0589938059470944,0.951631700874075,0.011305272666217,-0.0106762173552396,0.000356144035184445,-0.00233191732669623,0.0123190845336225,0.00307086168937117
475,475,0.0718027685986459,0.0589398741881216,0.951631667272736,0.0110143229580335,-0.0106905704501728,0.000265545195432502,-0.00447856504607931,-0.0119647736490018,0.00642777569699302
476,476,0.0719046201523117,0.0588852928759557,0.951631224201878,0.0107530080026251,-0.0109100992291589,9.45397921702844e-05,-0.0549445607047348,0.0137684696506878,-0.00926451017410161
477,477,0.0719966911912282,0.0588310395975663,0.951630515314906,0.0097136834537357,-0.0109747242196024,-0.000139179155408774,-0.0123082032525985,-0.0367975482734328,0.000157698184132978
478,478,0.0720788849801758,0.0587740572623355,0.951629339599541,0.00879737710109811,-0.0115378102610525,-0.000418927837967702,-0.0303492304426217,-0.00887215275935978,-0.0056786087101337
479,479,0.0721511027004592,0.0587112892994806,0.95162749605103,0.0078353433424318,-0.0118299344367603,-0.000662487140625481,-0.0285814615104099,-0.0480355284506984,-0.00814489964884234
480,480,0.0722132434906668,0.058639679691669,0.951624783638803,0.00735803635631457,-0.0115682112730102,-0.000824076542318251,-0.0410690533532239,-0.060910013068735,0.000798188939697613
481,481,0.0722644954762554,0.0585554130250384,0.951621088635015,0.00686982298796366,-0.0114122133850025,-0.000902004470654043,-0.0539284095600442,-0.0354220386521426,-0.0131765658397138
482,482,0.0723049237974066,0.0584605244129686,0.951616543832832,0.00564322739847505,-0.0120270923141747,-0.000926268440249318,0.00975093778265792,0.0476652364425434,0.00989156473679421
483,483,0.0723357387189264,0.0583607346217072,0.951611317886674,0.00441994943285455,-0.0124761441722328,-0.000920859210412847,0.0152910773470825,-0.00423755551869716,0.0362629729908772
484,484,0.0723581471732752,0.0582617650456161,0.951605579310161,0.00409742885544311,-0.0123765012046577,-0.000885769359367955,-0.0279547272776634,-0.0116782050241477,-0.00941950180008949
485,485,0.0723733531704474,0.058169337609144,0.951599496555535,0.00354845598887699,-0.0124890009240843,-0.000833798312394525,0.0093990150935704,0.039161210213825,0.0241336733158419
486,486,0.0723762323309196,0.058082668544093,0.951592891232494,0.00320480035174038,-0.0122824992631709,-0.000721204009889428,-0.0222766730316574,0.141436738032312,-0.746145034118253
487,487,0.0723659701326298,0.0579979438853041,0.951585649450657,0.00253640021472701,-0.0117711397121546,-0.000542461345164219,-0.0195136799748195,0.0619645356177055,-1.07860038939088
488,488,0.0723502369414329,0.0579163392422416,0.951578037130152,0.0018638905012418,-0.0110791753080804,-0.000338882425976552,-0.017124772830947,0.0207154422911372,-1.07272283576296
489,489,0.07233670736744,0.0578390283415566,0.951570320949612,0.00145848382718784,-0.0104388737457878,-0.000152635860933126,-0.0264144197876408,-0.018138238700971,-0.697332088563089
490,490,0.0723330598518596,0.0577671830948598,0.951562768243689,0.000661495764413895,-0.0102419134435413,5.87145716186529e-07,-0.0592444675328746,-0.0289390111847229,0.0569523388309216
491,491,0.0723423316630786,0.0576990868131525,0.951555090044862,0.000361105566590635,-0.00997004274891961,0.000102813049791707,-0.0660350497298827,0.0355691546292098,0.0169366612601759
492,492,0.0723594036391778,0.0576339547175115,0.951547108880059,5.65265197796883e-05,-0.00973963240222236,0.000170187637268042,-0.0492630177712345,0.0498368722386084,0.0387623257400256
493,493,0.0723797232960778,0.0575743548189587,0.951539259313873,-0.000133586654860485,-0.00899297820427736,0.000223181197614408,-0.0536253135572342,-0.0201812394753745,0.0306207446767634
494,494,0.0723987392713934,0.0575228544661401,0.951531975340091,-0.000198113291700675,-0.00826591097243816,0.000262700412338825,-0.0343365380653077,0.0177806196225435,0.0255094539407741
495,495,0.0724119012702436,0.0574820202263247,0.951525690448568,-0.000434920271031287,-0.00761341098141387,0.000290538784223481,-0.00981846063982262,0.00535002580397706,0.027449404187594
496,496,0.07241757830454,0.0574533161551578,0.951520641056397,-0.000471350115985598,-0.00693023947903526,0.000321644888510352,-0.0379988916850312,0.0399437445395723,0.0245520394494308
497,497,0.0724188070617107,0.0574350253601494,0.951516537517598,-0.000747135108628509,-0.00627180933904129,0.000360181341517036,-0.0571252909734639,0.0541752979204735,0.044764910332893
498,498,0.0724180382365938,0.0574249429473708,0.951513023975466,-0.000977144573809593,-0.00561370449487568,0.000380801982853686,-0.013556051461861,0.0664851399036783,0.0511048372568753
499,499,0.0724177208284815,0.0574208651777815,0.951509744617254,-0.00120849675810929,-0.00451637308754951,0.000370255594502153,-0.0314734086536941,-0.021700178328565,0.0231899054794837
500,500,0.0724203022419195,0.0574205895780224,0.951506343658696,-0.00109622133102476,-0.00400846893025835,0.000291221934813118,-0.0133963640964412,0.0697443319103856,-0.0205789201128982
501,501,0.0724297255066024,0.0574265905401142,0.951502735843187,-0.00116333790080706,-0.00325851610740465,0.000118158795858905,-0.0170216716010288,-0.00865972287151207,-0.00161881676352101
502,502,0.0724443575127251,0.0574403334665324,0.951499158243087,-0.00119926557415857,-0.00253438867857214,-0.000149491412295966,0.00204029884600783,0.0227904001039974,-0.00752664890631545
503,503,0.0724582806832701,0.0574581032627599,0.951495738267458,-0.000993425781902896,-0.00206733629783637,-0.000456405556571374,-0.0463689121231641,0.0263006087288417,-0.00956379036118787
504,504,0.0724655779127138,0.057476184859379,0.951492602894237,-0.00109965492907833,-0.00174071980568277,-0.000722708393277364,0.0273695018936939,0.00896157219836763,0.00168487942236458
505,505,0.0724603325253148,0.057490863383166,0.951489878730521,-0.00105649962792363,-0.00165751269450749,-0.000900923184576337,0.0177174724437073,0.0261185407568802,-0.0157445982714556
506,506,0.072436047381771,0.0574998339299627,0.951487521579754,-0.000961359266205311,-0.00142718735741885,-0.000960392326882122,-0.00249580909148606,-0.0233290828504163,0.00646553044038144
507,507,0.0723966665752077,0.0575055711818369,0.951485446093993,-0.00103886798748953,-0.00135913418381609,-0.000946654845466169,0.0360582873668105,-0.00593721325130563,0.0130553033476302
508,508,0.0723519354405866,0.0575115301980481,0.951483717186178,-0.00138417427651417,-0.00155660967858971,-0.000869710682808982,0.0349190490756952,-0.00990260224100888,-0.00206200339699386
509,509,0.0723115993185366,0.0575211660783831,0.951482399997747,-0.00175689808871589,-0.00145273290120871,-0.000768682696332919,0.0535359439369045,-0.00159939309498969,0.0521438954334818
510,510,0.0722854036109723,0.0575379337441835,0.951481559831595,-0.0013274328539,-0.000963431944550901,-0.0006473745465332,-0.0142532261213372,-0.0562143921654671,0.0075974397037641
511,511,0.0722719651216428,0.0575626736063394,0.951481049165267,-0.00142822583860499,-0.000881227839729125,-0.000474119539569112,0.0175955108908082,0.00674420879853834,0.0391944724727365
512,512,0.0722647866607689,0.0575930816053481,0.951480824410547,-0.00125661200854619,-0.000423446288173636,-0.000254941637029633,0.034050709804478,-0.0294937392114719,0.0368884893335556
513,513,0.0722659425196641,0.0576278954883075,0.951481106935671,-0.000677446598067253,0.000405422005419628,-3.30967729988511e-05,-0.0131130725423065,-0.0272205424297423,0.018782684712851
514,514,0.0722775069090353,0.0576658528172817,0.951482118109688,-0.00013631057627104,0.00107579880656218,0.000174418874995304,-0.0187612044126771,-0.038675574662895,0.0391697198437604
515,515,0.0723015540482776,0.0577056911564715,0.951484079219624,8.82616031477517e-05,0.00136304204475287,0.000338786889237029,0.0208258875016495,0.00825134906565615,0.0448280708175694
516,516,0.072344088947374,0.0577495721824396,0.951487376216141,0.000538612294367062,0.00202176678834215,0.00046686799669059,-0.0207911422310574,-0.0043726377924157,0.0506396593044367
517,517,0.0724037288251594,0.0577983367570038,0.951491861257867,0.00101639731887486,0.00266792027977694,0.000572160325078036,0.00057722841669419,0.013071742904988,0.028012096634949
518,518,0.0724714663201679,0.0578487415668973,0.951496954884321,0.00122807624861941,0.00308519734532377,0.000633884821477485,0.0117000870192018,-0.000892945269053554,0.0342451926907944
519,519,0.0725382940567554,0.0578975435785994,0.951502077821731,0.00168633605875214,0.00361776917233267,0.000637033337399642,-0.0131512004385387,0.0352923307361498,0.0109335428386191
520,520,0.0725952044737585,0.0579414999462243,0.951506651102631,0.00180531953475035,0.00424760982576543,0.000542661777582117,-0.00690706524905415,0.00299499982885071,0.00723196506029696
521,521,0.0726446979800746,0.0579781553858476,0.951510706330103,0.00183573194473672,0.00462537785672939,0.000315389870546479,-0.0293780199546837,0.0332818915795153,-0.02484532373178
522,522,0.072692779721416,0.0580096727864846,0.951514629522283,0.00193025426762953,0.00490202428220139,-6.2949725966433e-05,-0.0026630575571393,-0.0242873420642794,-0.0260683648937561
523,523,0.0727356990813932,0.0580397366728285,0.951518373783075,0.00167510594878528,0.0050307177641713,-0.00047712411324809,-0.00294405725682937,0.000757455673577328,-0.00487290314357824
524,524,0.0727697055935771,0.0580720314140121,0.951521892401308,0.00111611831382517,0.00502570751314322,-0.000856309561735452,0.0146460473333095,-0.0117290701278579,-0.0177733737751034
525,525,0.0727910489608808,0.0581102410566134,0.951525138772129,0.000686569625097097,0.00487697702344992,-0.00110526308890628,-0.017425277315689,-0.0226987765960748,-0.00370770392304136
526,526,0.0727939260887177,0.0581549881311966,0.951528006129067,-9.33788064931816e-05,0.00485833547963624,-0.00123740931113993,-0.0201565640660869,-0.0302837691744245,0.00686017420420984
527,527,0.07278083737842,0.0582038167534191,0.951530526146005,-0.00132164139977224,0.00494298520792612,-0.0013094216125652,-0.0131117143675625,-0.0447276050022185,0.0168582103670122
528,528,0.072760487950167,0.0582557936521552,0.951532859755132,-0.00208981496238233,0.00491882357990454,-0.00130684888865613,-0.0676936036332524,-0.043357546144185,0.00354363990987814
529,529,0.0727415830141143,0.05830998666523,0.951535167914327,-0.00270140226921949,0.0050929422184815,-0.00120727170954827,-0.0717635695371351,-0.0294340124607584,0.00334475047503157
530,530,0.0727328279201988,0.0583654650318473,0.951537611499862,-0.00299880016671848,0.00517700489473532,-0.00101652818977951,-0.0691767074430107,-0.0337977730662191,0.0212569867304227
531,531,0.072716275625061,0.0584212797720092,0.95153934338223,-0.00280708925363967,0.00577040805934551,-0.000694433741619417,-0.0881173455454847,-0.0385475800362367,-0.0239681154251797
532,532,0.0726861224898478,0.0584780550457237,0.951540257144004,-0.00244304375288519,0.00607767169513464,-0.000268078607091549,-0.0710096084565332,-0.0255680570363747,-0.000393857814899866
533,533,0.0726692899504805,0.0585372210286103,0.951541623011571,-0.00232692115255466,0.00667032441660054,0.000270661502558095,-0.0186956519253532,-0.0408970500852891,0.0664317960524638
534,534,0.0726927006440784,0.0586002080897318,0.951544708678801,-0.00178241648333655,0.00662653579547249,0.000869805452781627,-0.0177057064646313,0.00485566571371989,0.130906921756269
535,535,0.0727832784987033,0.0586684468576167,0.951550778242429,-0.00084985801749627,0.00623239235152208,0.00153181859379369,0.0446847065239849,0.00923840569439457,0.147616368307603
536,536,0.0729512582841256,0.0587504734507105,0.951560918987465,0.00112598572865007,0.00615394553780277,0.002439585013343,0.054885205745329,-0.0143783648687801,0.20791199900328
537,537,0.073178695455091,0.0588453414851348,0.951574275835832,0.00465374447553448,0.00685137123159712,0.00362188522324298,0.00672512310078431,-0.035258179534571,0.177417701430715
538,538,0.0734502441417698,0.0589402558348124,0.951589197784984,0.00810004497473744,0.00717550679461396,0.00474066726893212,0.0753465969003296,-0.0477710566797955,0.142536146372824
539,539,0.0737505559017606,0.059022417806573,0.951604037546497,0.0118570898601271,0.00739252377459334,0.00550342365861074,0.0753041799890933,-0.0342018216829275,0.091817654713454
540,540,0.0740642793540537,0.059079024648149,0.951617152902126,0.0148622723321047,0.00732468808290512,0.00562650480331587,0.072721000226965,-0.0330458509970574,0.0668655263395479
541,541,0.0744097720305548,0.0591057225645526,0.951629310122608,0.0173356834653159,0.00710048192306061,0.00489124377771933,0.105088865564212,-0.00397922291459856,-0.0094728753018665
542,542,0.0747972649684219,0.0591110480423542,0.951641590458149,0.0194494741118198,0.00638504154150247,0.00348165768854607,0.139509655264019,-0.0061038913626467,-0.0385113758428191
543,543,0.0751992148226831,0.0591015264340949,0.951652840618959,0.0214116866153767,0.0055978928051508,0.00173025299501865,0.151746921328528,0.00585621507583874,-0.123445716123348
544,544,0.0755880790045249,0.059083677667304,0.951661924156315,0.0230121967873213,0.00492879106626253,-6.69089872923565e-05,0.194978224144375,-0.00188296346544776,-0.110882860841973
545,545,0.0759363160238884,0.0590640159155741,0.951667719202806,0.0240508371663853,0.00412933647623405,-0.00159345329684835,0.228752125003294,0.00402860839799626,-0.122190163135858
546,546,0.0762462825829267,0.0590358076311379,0.951669637743734,0.025005608078827,0.0036362037460178,-0.00287952987445025,0.24016352131557,-0.000742826021556812,-0.127902062907153
547,547,0.0765363368212552,0.0589946946164846,0.951668448204945,0.0255559425050261,0.00279060265177179,-0.00414338026596511,0.243810509500391,9.41222759275407e-05,-0.10880466416343
548,548,0.0768029416182749,0.0589507486717404,0.951665069707524,0.0258861042277896,0.00222449188303123,-0.00531410882571318,0.222572555523146,-0.0071788162067661,-0.109155910058421
549,549,0.0770425615129437,0.0589140411673423,0.951660418943016,0.0259842638460944,0.00187317586514849,-0.00634470471381158,0.27104342850958,-0.0181139767618246,-0.110535387619578
550,550,0.0772516623038517,0.0588946434896777,0.951655409301857,0.0259240106203028,0.00186603850014143,-0.00716155600839387,0.249993934522882,-0.0416851391067183,-0.113272743921426
551,551,0.0774288249657672,0.0588950873276004,0.951650161534996,0.0254831037314904,0.001877889472992,-0.00772378547405132,0.2713479760176,-0.0145139755006404,-0.102278412144919
552,552,0.0775764053635687,0.0589086375203792,0.951644064673341,0.0250877369177453,0.00194532689414797,-0.00806796092683919,0.225001775657841,0.0152031427104331,-0.0999612075856031
553,553,0.0776965318309353,0.0589314693607507,0.95163692964862,0.0243895706848098,0.00231856457011846,-0.00827046032829886,0.237583907488716,0.00636565565154585,-0.0927478859954709
554,554,0.0777913327552009,0.0589597638231595,0.951628566029836,0.023683614454419,0.00290125096642022,-0.00842011986342669,0.197783311338846,-0.016763230788264,-0.0642969583283046
555,555,0.0778629369810923,0.0589897079987396,0.95161878343747,0.0229808720523152,0.00360798452576295,-0.0086063354305955,0.168152222993522,-0.0323431007123917,-0.0773713331621842
556,556,0.0779086491245713,0.0590222120707924,0.951608012166095,0.0220237276910305,0.00369594613244105,-0.00887553899482846,0.153341682296831,0.0325750457816537,-0.0971742103760917
557,557,0.0779270478312837,0.0590598118366032,0.951596359447525,0.0206836219874164,0.00436713296813951,-0.00917724437831727,0.128997428882273,-0.0393136422447566,-0.0928946647622525
558,558,0.0779221748689521,0.0591011388275205,0.951583151688899,0.019323390933578,0.0046501392537199,-0.00942578244174167,0.0904145332247415,0.00239651260801949,-0.0999460453476024
559,559,0.077898073837514,0.0591448264482478,0.951567716539609,0.017471444197212,0.00507098533445499,-0.00954657918016567,0.109513798846126,-0.0195207758822269,-0.0831042289513145
560,560,0.0778587900563046,0.059189510220423,0.951549383536504,0.0160471192079107,0.00535562363020231,-0.00947238117338926,0.0623980736763162,0.0246662129181587,-0.0916750517624729
561,561,0.0778064609957233,0.0592354180156708,0.951527850986646,0.0147251312713708,0.00571672514090996,-0.00908423656187624,0.0377003936868691,0.0120398210984365,-0.0500321585845784
562,562,0.0777383926350371,0.059283461204247,0.951503541224799,0.0133800489211118,0.00616310239222775,-0.00843305878586573,0.0387276462154377,0.0129290409731912,-0.0154888634157561
563,563,0.0776513836198492,0.059333302783937,0.951476873309904,0.0124830964735227,0.00632056212082126,-0.00770524691547749,0.0242798531084241,0.0605828506068363,-0.016041607586045
564,564,0.0775422318768769,0.0593846058734017,0.95144826885713,0.0111289083185112,0.00685090658056148,-0.00702590326564523,0.00119787584525766,0.0132092525986188,0.00623112301797924
565,565,0.0774077345897419,0.059437033400712,0.951418152542561,0.00933706418600299,0.00714338909787967,-0.00659429844000145,-0.00832523177631375,0.0485316157238191,0.046433208895991
566,566,0.0772554354532115,0.0594907697007637,0.951386937550636,0.00721859080417669,0.00758061349814836,-0.00645337548794554,-0.0585988823766524,0.0538851045820649,0.0309430716922905
567,567,0.0770874709146237,0.0595460430854896,0.951354317731063,0.00475703798786434,0.00796688711803602,-0.00650719476355866,-0.109736041255316,0.0739680422252517,0.0427297119683037
568,568,0.0768925259599809,0.0596025841112438,0.951319643133445,0.00214990130320759,0.00852052848282699,-0.00663963831288706,-0.186466534043367,0.0722772635649634,-0.0471836340882781
569,569,0.0766592844189924,0.059660125706359,0.951282266663014,-0.00109892027148572,0.00893984828821838,-0.00675371873921219,-0.222670058447932,0.0643557977150951,-0.0628261009610956
570,570,0.0763764286245971,0.0597184034940089,0.951241545074615,-0.00414358970295212,0.00951899477352256,-0.00679435256819636,-0.291773749329416,0.0437541852492783,-0.132035225552191
571,571,0.0760174952781426,0.0597693259330965,0.951193781501364,-0.00828003600561293,0.0101530584631636,-0.0070620159919191,-0.305324482912941,0.0878877307892271,-0.088973137545851
572,572,0.0755900230580933,0.0598130821877286,0.951139360703604,-0.0128527972868811,0.0107171680324276,-0.00761588305687444,-0.354472434731729,0.0386372358219669,-0.0899240706695918
573,573,0.0751337004014866,0.0598618325900475,0.951083810528192,-0.0171285523488693,0.0109842291715756,-0.00796705306174473,-0.390113454168861,0.0965426775433295,-0.0396170364316065
574,574,0.0746882230308118,0.0599277359122524,0.951032720749597,-0.0204770870143876,0.0113524463165541,-0.00759972254654607,-0.459719883817065,0.0478209945636967,-0.0058729901384348
575,575,0.0742932925070441,0.0600229473156154,0.950991735609859,-0.0226974361737521,0.0117673437559859,-0.00607071828698241,-0.430146673039304,0.0551809125463616,0.143108155266212
576,576,0.0739043710371601,0.0601621363752835,0.950957533306647,-0.0237781544448778,0.012156927504806,-0.00280977969003377,-0.45014869859978,0.0267084998600502,0.238427767331491
577,577,0.0734949935002539,0.0603372048694446,0.950926430796679,-0.0239581143697271,0.0125695471523352,0.00187404655450113,-0.442189387293215,0.0318632190298124,0.36512101389656
578,578,0.0731319720222813,0.0605261545762124,0.950903571648205,-0.0232155157254278,0.0135989912334784,0.00717172725903715,-0.469063419844085,-0.0408318095855855,0.484828453959069
579,579,0.0728821190288899,0.0607069918724113,0.950894097127376,-0.0216187925256719,0.0140491115442453,0.0122457325828425,-0.420419136266901,-0.0251308321293324,0.603993311776824
580,580,0.0728122477718799,0.0608577298815724,0.950903122285606,-0.0189392480982187,0.0141728167330253,0.016292351487863,-0.399046666018876,-0.0723457610586311,0.649189299061476
581,581,0.0729522420999973,0.0609825661107562,0.950937235221102,-0.0150178015430159,0.0130347783923442,0.0195148399929591,-0.361323854915119,-0.0676101580856146,0.658893501107863
582,582,0.0732575532727493,0.0610961750302895,0.950992951185546,-0.0097193242128371,0.0114542828465163,0.0224776468087096,-0.359940505372079,-0.0460361970061821,0.549564608447945
583,583,0.0736833486803703,0.0611922882116192,0.951060241681419,-0.00425912917230564,0.00989440070858593,0.0247728315568104,-0.258932750817166,-0.0942924802855175,0.41611874569121
584,584,0.0741847996207824,0.0612646316636775,0.951129117875772,0.000885608325523629,0.00819422528942284,0.0260060429772788,-0.174802992526005,-0.0583489403280868,0.274939770430673
585,585,0.074717081679361,0.0613069229277845,0.951189662244904,0.00509268973339049,0.00697122928263577,0.0258428728178406,-0.104588291032277,-0.0645262780508364,0.115220752919312
586,586,0.0753237129492279,0.0613099097908328,0.951244299327683,0.00849981455455893,0.00542349820271584,0.023721648620153,-0.016771735549837,-0.0599108753699499,0.0530108253995378
587,587,0.0760345700526365,0.0612777801570379,0.951299538047351,0.0123590974988052,0.00403290249401116,0.0199172058334721,-0.0500156061841381,-0.0317239540031248,-0.0725385440928936
588,588,0.076784371772867,0.0612243979554473,0.951351706700286,0.0158517701794425,0.00298675165448272,0.0152298640098189,-0.0176416520917372,-0.0337639777445004,-0.162855690300384
589,589,0.0775078421123664,0.0611636220280563,0.95139721243018,0.0190167163586898,0.00224183415322915,0.0104627249067329,0.0247695903517504,-0.0236647778259456,-0.233668658618397
590,590,0.0781397120396391,0.0611093095677135,0.951432536626106,0.0208318187932062,0.00145324586221544,0.00645938394740128,0.114928688124831,-0.025846792390725,-0.255642606888789
591,591,0.0786842257565524,0.0610566986286492,0.951455360601465,0.0219585378563427,0.000628008876668553,0.00312636106215718,0.134326790282268,0.00387019637420174,-0.257061438186959
592,592,0.0791848990874469,0.0609965350847749,0.951468116505754,0.0225986714697457,-6.78967401595359e-05,-0.000101558023342541,0.218939859840379,0.0356759676898487,-0.241054226879607
593,593,0.0796353784206484,0.0609359415992497,0.951474455223212,0.0230086502834661,-0.000470030381780547,-0.00305079517638409,0.215707154201799,-0.0143773350805695,-0.194354092509553
594,594,0.0800293124675014,0.0608820449387537,0.951478020943478,0.0227815895885332,-0.00087884431674391,-0.00558961874683617,0.282540623438692,0.0233623700716962,-0.162968722140049
595,595,0.0803603512162195,0.0608419758522205,0.951482450625432,0.0228143840144855,-0.00131078084636432,-0.00755066848455014,0.274343880422598,0.011898304067524,-0.167715791275669
596,596,0.0806142606279894,0.0608208386981448,0.951487080677125,0.0219196832778741,-0.00166305600250951,-0.0088225081051286,0.351701275212479,0.0673795427219629,-0.154830500020472
597,597,0.0807952818250734,0.0608138836505876,0.951489535006827,0.0210180429530398,-0.0016041388927508,-0.00951565712164801,0.359399016187375,0.0401536227667084,-0.0839297303106261
598,598,0.0809247748968242,0.0608134619726073,0.951490865991507,0.0203032103979149,-0.00122238272436516,-0.00979062019735903,0.29914420490559,0.0245905199111262,-0.134243359039791
599,599,0.0810240970811861,0.0608119224332986,0.951492115401717,0.0193362389107902,-0.000769462380744682,-0.00982425851621727,0.261526421202838,0.0641494722843803,-0.0909713200636987
600,600,0.0811146040208662,0.0608016103845073,0.951494318319011,0.0183325625876809,-0.000597209656791786,-0.00980220473074375,0.265920911158893,0.0370288503252398,-0.076358193000606
601,601,0.0811893634379338,0.0607780727168993,0.95149816454342,0.0169584975224487,-0.000667256960977078,-0.00964297975616717,0.256634574313541,0.042165242078202,-0.0457566826620404
602,602,0.0812341355628718,0.0607464155482285,0.951502973144228,0.015547394285497,-0.000924200131215981,-0.00922343287078783,0.171672811617573,0.0329110218207515,-0.0793614789654159
603,603,0.0812593155572007,0.0607133198572519,0.95150771803456,0.0136928916329877,-0.00132235373114395,-0.00867479760339977,0.217721360192574,0.0305749383717855,-0.0394393118693178
604,604,0.0812753003113701,0.0606854664400481,0.951511369101473,0.011975602894553,-0.00146168087681814,-0.00812889795302426,0.210373413706342,0.00207757589077225,-0.0336664059271518
605,605,0.081292488437007,0.0606695371209974,0.951512891571262,0.0102931473529938,-0.0015587954625833,-0.00769097933833312,0.195601833813432,0.0213461928099809,-0.057226300417468
606,606,0.0813117922365058,0.0606654144877447,0.951512396980913,0.00959197415242108,-0.00129088808344729,-0.00742105476735421,0.197217194057945,-0.02755395549019,-0.0686749177423103
607,607,0.0813262820875387,0.0606686534872538,0.951510570792643,0.00913129050953902,-0.00111620059896761,-0.00720722027555716,0.218687645429747,0.0124574496899342,-0.047022229851004
608,608,0.0813345944427612,0.0606794466910506,0.951507235936003,0.00857532766887966,-0.000952021744615817,-0.0070086132179334,0.184275138079758,-0.0341681900295757,-0.044145806580687
609,609,0.0813353654310535,0.0606979867339479,0.951502215415559,0.00819254523061081,-0.000580453246462195,-0.00679163561158376,0.138051955869365,-0.0222979045150444,-0.0349824002885433
610,610,0.081327230985996,0.0607244662511696,0.951495332950411,0.00778759744070733,-0.000159533521735899,-0.00651502610000393,0.0772520359194247,-0.033212968799049,-0.0641943181331536
611,611,0.0813098385907078,0.060767267496492,0.951485841386379,0.00704808514512993,0.000644355700471615,-0.00624995628734418,0.0828918625091178,-0.0255477157761665,-0.0640488860605309
612,612,0.0812841016860049,0.0608262853011435,0.95147384711613,0.00652871038508112,0.00133238070910623,-0.00601512360836262,0.0288236591808423,0.00195916953371103,-0.0203927360435076
613,613,0.0812505536009198,0.0608889771000822,0.951460458903158,0.00597738708315263,0.00197501373380064,-0.00572709808321232,-0.0356556426923225,-0.0254757519224864,-0.0220701812457979
614,614,0.0812097255401108,0.0609427935399722,0.951446791644471,0.00554491558399091,0.00160743311256125,-0.00525409517222907,-0.0489516404096101,-0.0130228650673589,0.00982431466838714
615,615,0.0811621463986696,0.0609751772245605,0.951433966998618,0.00441345782715278,0.000807894469316189,-0.00450089628990339,-0.0652053662373914,-0.0153903661347761,0.0391860762330337
616,616,0.0810889824474769,0.0609850217458622,0.951420547389349,0.0026065392452719,-0.000174641620684548,-0.00339482001258152,-0.13675546254711,0.0138573478402709,0.0554810561883228
617,617,0.0809898777926576,0.0609807193708087,0.951405782418518,0.00192687120518225,-0.000228851791811133,-0.0020325855349761,-0.206103652215467,-0.0515155866341184,0.069446859592436
618,618,0.0808930812984164,0.0609639395488564,0.951391839451839,0.00104235415403326,-0.00107691194274742,-0.000503471046129146,-0.195117043022023,-0.0179420774778648,0.120493591645048
619,619,0.0808268486659399,0.060936329295352,0.951380898404256,0.000398494323102353,-0.00236581241325895,0.00103333181315346,-0.182682390220937,0.0209626596979434,0.162209629070737
620,620,0.0808194406494055,0.0608995097057312,0.951375147584573,0.000267207227289057,-0.00379296481344937,0.00244274365178345,-0.16774095326029,-0.0217471964819369,0.22195529537169
621,621,0.0808750787256537,0.0608509984464054,0.951375732206089,0.000882136364436786,-0.00506616447796089,0.00387253699838612,-0.185641580944858,0.0191135246213015,0.265550021673748
622,622,0.0809749274094866,0.0607896606192073,0.951381207990078,0.00193647470671542,-0.00604666162530293,0.00543814195180983,-0.199384411904766,0.0099970654460977,0.225094715715798
623,623,0.0811126654534893,0.060719125066563,0.951389876517028,0.00319514411858242,-0.00735537023926438,0.00686529120159734,-0.207315149567662,0.0248138419813594,0.213807620892667
624,624,0.0812819756524179,0.0606430327931682,0.95140003615573,0.00495535363789713,-0.00806855847680806,0.00792863607388478,-0.196794954521893,0.00448455523824631,0.147180030040509
625,625,0.0814765465891648,0.0605650395330244,0.951409984855789,0.00643556260664819,-0.00865318527460403,0.00839882588052007,-0.196115094020979,0.0160110390434322,0.0646604576956631
626,626,0.0817180413315907,0.0604834838136126,0.951421179469795,0.00764116482369095,-0.00936142790255293,0.00813673351993784,-0.107281422957815,0.0145894575517451,0.0629940815214717
627,627,0.0820106770109287,0.060395881077565,0.951434739181807,0.00890028064123853,-0.00961575720796184,0.00726623162945659,-0.0640444311716364,-0.0308622561379356,0.0115471820150006
628,628,0.0823219800384511,0.0603046854231629,0.951448463950153,0.00969861094744743,-0.0107697449063728,0.00605099084383835,-0.0266396733371514,0.102552586320581,-0.0128619220776878
629,629,0.0826194801174829,0.0602123784780105,0.951460167399064,0.0107168510300926,-0.0115110106000245,0.00465791749105787,0.0112315005158985,0.0327460745173748,-0.0366734388928162
630,630,0.0828707105603187,0.0601214711684825,0.951467677307578,0.011626691514913,-0.011754910317652,0.0033274725207336,0.000607706434073303,0.0846848921016626,-0.0833663548721504
631,631,0.0830730977477501,0.0600295230963982,0.95147056078921,0.0119600896737137,-0.0119390032974135,0.00193783540533189,0.0645188824878996,0.0501112090050797,-0.111760833242412
632,632,0.0832483060842795,0.0599348869416523,0.951470277430791,0.0120485587843395,-0.0122188349799017,0.000346811164814104,0.0696208053302361,0.108173122732904,-0.0942327456468254
633,633,0.0834002249747784,0.0598412886120176,0.951467501179055,0.0118541514240494,-0.0123972446938415,-0.00126590950661666,0.135570669737162,0.0889029860894412,-0.0947061836421631
634,634,0.0835327393297716,0.0597524564571238,0.951462904600209,0.0119175508623083,-0.0123073657071064,-0.00269813499831491,0.0828172210085502,0.0866908016064511,-0.124403694026176
635,635,0.0836497290843974,0.0596721216761581,0.951457158841206,0.0117740057081758,-0.0123597724759555,-0.00378957868273743,0.132298857649413,0.06517987423233,-0.0947348439150732
636,636,0.0837447689891876,0.0595970278303835,0.9514499995382,0.0115824103115503,-0.0123715142492761,-0.00445990444962044,0.0897439884406123,0.0620947138064982,-0.0647592951550999
637,637,0.0838152865029279,0.0595247348893271,0.951440982890468,0.0109692332204102,-0.0126462588724852,-0.00485832278201156,0.113466915330975,0.04985896549153,-0.0410454461971142
638,638,0.083870928547261,0.0594601930717316,0.951430508469666,0.0106045965008286,-0.0131044815036568,-0.00504602272104354,0.0774942659817823,0.0628290404650517,-0.0606857452444475
639,639,0.0839213308673809,0.0594083402398628,0.951418974728635,0.0101201287692865,-0.0131321899141966,-0.00509584874948955,0.112098125532144,0.0158150821517406,-0.0171215598538396
640,640,0.0839761177855934,0.0593741006254067,0.951406779896463,0.00984467756198601,-0.0131039231064328,-0.00507202833551767,0.0897654763128347,0.00174886093568816,-0.0418781412644913
641,641,0.0840360282372969,0.0593564504217049,0.95139354813211,0.0097478549421837,-0.0129456305683461,-0.00495328725618185,0.10927497981385,-0.0114802226431342,0.00321606760841195
642,642,0.084094635314636,0.0593521327723757,0.951379013557597,0.0101460450521725,-0.0125016935025045,-0.00470350297248361,0.0472073761428543,-0.0389703969716342,-0.0356394936841739
643,643,0.0841507976785555,0.0593627038421263,0.951363739245774,0.0102430780018334,-0.0123988159907965,-0.00434644824484353,0.0611496515971125,0.0241344552318566,0.00115056849069159
644,644,0.0842033629410132,0.0593897088154124,0.951348287910321,0.00997175347368547,-0.0121559972178945,-0.00391335848567112,0.088854584782727,-0.0345859552213124,0.0270435865793235
645,645,0.0842511678778666,0.0594346821350408,0.951333222458129,0.00998010528899579,-0.0114413315866354,-0.00343134586638883,0.0354171988108074,0.0329455515891422,0.00415314106640968
646,646,0.0842945711670688,0.0595024515363597,0.951318690592479,0.0097234554554957,-0.0101869814170825,-0.00287990478016517,0.0480325325626893,-0.0093911812761926,0.0399695606204286
647,647,0.0843343048445971,0.0595919985394651,0.951304319621615,0.00947053181822263,-0.00832216458062241,-0.00222571002328443,-0.00160016622698756,0.0127646580356718,0.0429271416113669
648,648,0.0843697630014829,0.0596960740420186,0.951289892020492,0.00881880192471821,-0.00628883699371109,-0.00151844680848226,-0.00420285667673222,0.0234798395111563,0.0543064175239338
649,649,0.0844003476718677,0.0598074198892947,0.951275189216211,0.00835969715425953,-0.00421542010667574,-0.000826361116992252,-0.0161384822356984,0.0496776278180821,0.043604201693001
650,650,0.0844254697145958,0.0599187690030611,0.951259991302474,0.00800234451812262,-0.0023833630289693,-0.000226675616309553,-0.0439681857922417,0.0402119521878418,0.040251418922089
651,651,0.084440625434075,0.060029458496817,0.951243940723453,0.00735915230481487,-0.000495579895727194,0.00028303715911539,-0.0582962875470533,0.0646457669412322,0.0458917374363861
652,652,0.0844461868852087,0.0601443184203128,0.951227187941853,0.00644236995144569,0.00150323006934225,0.000713261423749978,-0.0395948786528033,0.0457685453549429,0.0527122877532042
653,653,0.0844488858170566,0.0602643133001644,0.951210273756681,0.00579057996340426,0.00350649147622765,0.00110144868651366,-0.0771763097075258,0.0714057343163642,0.0616868919039252
654,654,0.0844554555085673,0.060390405956413,0.951193738030168,0.00476886790660616,0.00514522626516116,0.00154272182321687,-0.0524893345278741,0.0949128560265469,0.0475990934795105
655,655,0.0844726320606066,0.060523557506939,0.951178119092032,0.00387879702047957,0.0067741061005369,0.00206487131073305,-0.0411077161208264,0.137754067271029,0.0448041593958381
656,656,0.0845022660119144,0.0606583031957446,0.951161796844605,0.00322919257067089,0.00852037780135643,0.00273174773505523,-0.0557494539149301,0.162450374946096,0.0736376168122985
